Lng[deg],Lat[deg],AccX,AccY,AccZ,GyroX,GyroY,GyroZ
130.707372,33.880904,0.033447,0.207520,1.085205,-6.774902,5.493164,-1.953125
130.707371,33.880905,0.023682,0.205322,1.081543,-5.126953,-2.807617,-1.647949
130.707371,33.8809051,0.053467,0.186279,1.124512,19.897461,-0.854492,-0.549316
130.707371,33.8809052,0.046387,0.142090,1.166260,6.408691,4.638672,-1.647949
130.707371,33.8809053,0.094482,0.106445,1.222656,45.227051,19.226074,-6.286621
130.707371,33.8809054,0.072266,0.176025,1.149414,-12.451172,0.244141,-0.610352
130.707371,33.8809055,0.072266,0.176025,1.149414,-12.451172,0.244141,-0.610352
130.707371,33.8809056,0.005859,0.206055,1.096924,1.098633,-0.305176,-0.549316
130.707371,33.8809057,0.010010,0.232666,1.069580,-4.455566,0.061035,-1.403809
130.707371,33.8809058,0.022705,0.238281,1.069336,0.671387,-1.220703,-1.464844
130.707371,33.8809059,0.017578,0.231934,1.075928,-2.319336,-0.488281,-2.319336
130.707371,33.880906,0.022705,0.233398,1.073242,-2.258301,0.305176,-3.784180
130.707371,33.88090605,0.044434,0.263916,1.067871,0.122070,-2.502441,1.403809
130.707371,33.880906100000004,-0.034424,0.212891,1.090820,-2.929688,0.183105,1.220703
130.707371,33.88090615,-0.034424,0.212891,1.090820,-2.929688,0.183105,1.220703
130.707371,33.880906200000005,-0.014404,0.227051,1.069336,1.647949,5.371094,-3.295898
130.707371,33.88090625,-0.021484,0.224854,1.049561,-2.075195,0.122070,2.319336
130.707371,33.8809063,0.003662,0.246582,1.048584,0.244141,0.000000,-4.333496
130.707371,33.880906350000004,0.017822,0.204346,1.082031,-4.394531,-0.854492,-3.173828
130.707371,33.8809064,0.013672,0.236084,1.079346,-0.793457,-2.014160,0.000000
130.707371,33.880906450000005,0.008789,0.237793,1.069336,-1.586914,-2.502441,-2.258301
130.707371,33.8809065,-0.002197,0.239502,1.074463,-1.831055,0.488281,-1.892090
130.707371,33.88090655,-0.002197,0.239502,1.074463,-1.831055,0.488281,-1.892090
130.707371,33.8809066,-0.006592,0.233643,1.079102,-0.549316,-0.854492,-0.854492
130.707371,33.88090665,-0.012695,0.236816,1.063477,-1.281738,-1.708984,0.427246
130.707371,33.880906700000004,-0.004639,0.223877,1.068115,-1.159668,0.244141,0.671387
130.707371,33.88090675,-0.005615,0.227051,1.066895,-2.624512,0.610352,-0.732422
130.707371,33.8809068,-0.005127,0.228271,1.070557,-2.380371,2.441406,-2.136230
130.707371,33.88090685,-0.003906,0.231445,1.076904,-0.488281,0.854492,0.610352
130.707371,33.8809069,0.001465,0.234131,1.074707,-2.868652,-0.427246,0.793457
130.707371,33.88090695,0.001465,0.234131,1.074707,-2.868652,-0.427246,0.793457
130.707371,33.880907,-0.023193,0.220703,1.066406,-1.770020,0.366211,-2.319336
130.70737096666667,33.88090696666668,0.004395,0.235840,1.072266,-2.563477,-1.037598,-0.549316
130.70737093333332,33.88090693333333,0.000488,0.231201,1.072021,-2.075195,0.793457,-1.281738
130.7073709,33.88090690000001,-0.020752,0.229004,1.068115,-1.525879,0.061035,0.732422
130.70737086666665,33.880906866666656,-0.002197,0.236328,1.075195,-3.112793,0.915527,-1.342773
130.70737083333333,33.880906833333334,-0.016113,0.242188,1.061279,-2.197266,0.000000,-2.136230
130.7073708,33.88090680000001,0.002930,0.227295,1.073975,-0.366211,1.525879,0.000000
130.70737076666666,33.88090676666666,0.002930,0.227295,1.073975,-0.366211,1.525879,0.000000
130.70737073333333,33.88090673333334,0.000000,0.227051,1.067139,-2.502441,0.976562,-0.610352
130.70737069999998,33.88090669999999,-0.003174,0.221191,1.062988,1.281738,0.976562,-0.305176
130.70737066666666,33.88090666666667,0.040039,0.255127,1.073486,-0.915527,-3.662109,-1.281738
130.70737063333334,33.880906633333346,0.027588,0.260254,1.065430,-1.953125,2.136230,-0.366211
130.7073706,33.880906599999996,-0.012451,0.232178,1.051270,-3.479004,0.244141,0.427246
130.70737056666667,33.880906566666674,-0.018555,0.228516,1.065918,-2.868652,0.732422,0.732422
130.70737053333332,33.880906533333324,0.004883,0.232422,1.075439,-0.366211,1.342773,-0.305176
130.7073705,33.8809065,0.004883,0.232422,1.075439,-0.366211,1.342773,-0.305176
130.70737046666667,33.88090646666668,-0.078125,0.183105,1.065674,-2.563477,2.380371,-1.647949
130.70737043333332,33.88090643333333,-0.014160,0.235596,1.073730,-4.272461,5.126953,-2.319336
130.7073704,33.88090640000001,-0.001465,0.233398,1.058594,-1.586914,1.525879,0.915527
130.70737036666665,33.88090636666666,-0.000488,0.228516,1.069336,-0.976562,0.061035,-0.366211
130.70737033333333,33.880906333333336,-0.033203,0.234619,1.056641,-0.366211,-3.967285,-0.793457
130.7073703,33.880906300000014,-0.008789,0.230713,1.052979,-1.647949,-2.258301,0.549316
130.70737026666666,33.88090626666666,0.021729,0.254395,1.044678,-1.037598,1.525879,-0.305176
130.70737023333334,33.88090623333334,0.021729,0.254395,1.044678,-1.037598,1.525879,-0.305176
130.70737019999999,33.88090619999999,-0.003662,0.239746,1.067871,-2.319336,0.183105,-1.708984
130.70737016666666,33.88090616666667,-0.024658,0.240723,1.104980,-4.516602,5.249023,-4.760742
130.70737013333334,33.88090613333335,-0.068359,0.141113,0.967285,-2.502441,0.793457,-16.845703
130.7073701,33.8809061,0.166016,0.195312,0.997803,-13.671875,-33.386230,-21.911621
130.70737006666667,33.880906066666675,-0.079834,0.276367,1.060059,-6.835938,9.887695,-16.235352
130.70737003333332,33.880906033333325,0.006348,0.301758,1.012451,-2.258301,3.417969,-11.901855
130.70737,33.880906,0.019287,0.305908,1.064941,-1.464844,4.211426,-23.986816
130.7073695,33.8809058,0.019287,0.305908,1.064941,-1.464844,4.211426,-23.986816
130.707369,33.880905600000006,-0.083984,0.333984,1.044189,-6.286621,9.643555,-46.264648
130.7073685,33.8809054,-0.164307,0.340088,0.989746,2.441406,3.417969,-52.062988
130.707368,33.8809052,-0.207031,0.340576,0.956543,-1.647949,0.427246,-41.259766
130.7073675,33.880905,-0.211670,0.319092,1.181641,3.356934,-5.432129,6.164551
130.707367,33.8809048,-0.247314,0.364502,1.025879,9.155273,-10.192871,57.556152
130.7073665,33.8809046,-0.110107,0.328125,1.114990,1.159668,-4.333496,36.743164
130.707366,33.8809044,0.022949,0.312256,1.039062,2.624512,2.990723,8.117676
130.7073655,33.8809042,0.022949,0.312256,1.039062,2.624512,2.990723,8.117676
130.707365,33.880904,-0.103760,0.395264,1.020020,1.037598,0.976562,-0.488281
130.7073638,33.8809038,0.035400,0.320557,1.046387,9.521484,-6.469727,-3.784180
130.7073626,33.8809036,-0.211914,0.221924,1.323486,-5.187988,-9.155273,-8.361816
130.70736140000002,33.8809034,-0.156982,0.172852,1.046387,-15.136719,11.291504,5.004883
130.7073602,33.8809032,0.087402,0.238770,0.965820,6.958008,-3.417969,-7.507324
130.707359,33.880902999999996,-0.184326,0.248535,1.105957,-5.249023,-23.071289,-16.174316
130.7073578,33.8809028,-0.184326,0.248535,1.105957,-5.249023,-23.071289,-16.174316
130.70735660000003,33.8809026,-0.130127,0.306152,0.923096,9.826660,-21.118164,-16.052246
130.7073554,33.8809024,-0.077637,0.249756,1.093994,-3.295898,8.422852,-27.954102
130.7073542,33.880902199999994,-0.208984,0.255615,1.150146,3.356934,3.173828,-20.019531
130.707353,33.880902,-0.008057,0.247314,1.089355,13.061523,-39.916992,33.020020
130.7073512,33.880901699999995,-0.205566,0.095703,1.049561,10.559082,-20.019531,50.781250
130.7073494,33.8809014,0.000488,-0.066162,0.996826,-7.202148,-21.911621,44.311523
130.70734760000002,33.8809011,0.069824,0.386963,0.906494,3.234863,-8.178711,37.841797
130.7073458,33.8809008,0.069824,0.386963,0.906494,3.234863,-8.178711,37.841797
130.707344,33.880900499999996,-0.037842,0.362305,1.084473,-9.582520,8.789062,43.029785
130.7073422,33.8809002,0.190186,0.302246,1.114502,-0.366211,3.967285,15.991211
130.7073404,33.880899899999996,0.130859,0.353027,1.002930,-3.784180,11.047363,-10.314941
130.7073386,33.8808996,0.121338,0.353271,1.053467,-0.549316,4.455566,-23.986816
130.7073368,33.8808993,-0.076660,0.381348,1.007080,-5.615234,-0.488281,-18.432617
130.707335,33.880899,-0.117676,0.046631,0.974609,-20.385742,17.883301,0.732422
130.7073328,33.8808984,-0.097168,0.261475,1.038818,9.948730,12.939453,-3.662109
130.7073306,33.8808978,-0.097168,0.261475,1.038818,9.948730,12.939453,-3.662109
130.7073284,33.8808972,0.059326,0.240967,1.008545,2.563477,-5.187988,-9.094238
130.7073262,33.8808966,-0.069824,0.297363,1.200439,-8.239746,-6.225586,11.413574
130.707324,33.880896,0.022461,0.118164,0.935791,8.972168,-15.747070,12.023926
130.7073218,33.8808954,0.001953,0.251221,1.119873,-11.413574,-0.793457,16.052246
130.7073196,33.8808948,0.029053,0.331787,1.386963,-13.488770,-0.549316,18.798828
130.7073174,33.8808942,0.100342,0.197998,1.171143,-19.165039,11.169434,2.868652
130.7073152,33.8808936,0.186035,0.167480,1.243652,-9.765625,4.821777,-3.540039
130.707313,33.880893,0.186035,0.167480,1.243652,-9.765625,4.821777,-3.540039
130.7073105,33.8808919,0.025879,0.170654,1.164307,-9.216309,12.268066,4.211426
130.707308,33.8808908,0.114258,0.277588,1.081299,2.502441,-6.225586,25.512695
130.7073055,33.8808897,-0.176025,0.073242,1.028076,-13.916016,7.812500,26.306152
130.707303,33.8808886,0.047363,0.260986,0.881104,5.981445,4.150391,3.784180
130.7073005,33.8808875,0.012451,0.118408,1.163818,-15.991211,8.972168,-14.770508
130.707298,33.8808864,-0.097412,0.331787,1.163818,-11.169434,7.385254,-24.841309
130.70729550000001,33.8808853,0.045898,0.310303,1.022217,2.258301,3.601074,-20.996094
130.707293,33.8808842,0.045898,0.310303,1.022217,2.258301,3.601074,-20.996094
130.7072905,33.8808831,-0.044922,0.234619,0.987305,-10.192871,3.295898,-1.892090
130.707288,33.880882,0.031982,-0.012939,1.112305,-21.423340,-18.188477,13.610840
130.7072854,33.88088059999999,-0.140137,0.177490,1.054932,-4.333496,-7.751465,1.892090
130.7072828,33.8808792,-0.052490,0.409424,1.131348,-2.380371,3.479004,9.460449
130.7072802,33.88087780000001,-0.071533,0.269775,0.981445,3.845215,1.098633,15.014648
130.7072776,33.8808764,-0.061035,0.374268,0.731934,22.338867,4.272461,9.277344
130.70727499999998,33.88087499999999,0.078613,0.324951,1.119629,28.564453,-15.441895,8.972168
130.7072724,33.8808736,0.078613,0.324951,1.119629,28.564453,-15.441895,8.972168
130.7072698,33.880872200000006,0.149414,0.242676,1.387451,-21.240234,1.098633,12.084961
130.7072672,33.8808708,-0.189697,0.070312,0.919434,-2.014160,9.399414,20.141602
130.70726459999997,33.880869399999995,0.054443,0.212158,1.248535,-18.615723,1.098633,31.005859
130.707262,33.880868,-0.048096,0.166016,1.033203,23.071289,-9.338379,10.986328
130.70725929999998,33.88086619999999,0.067139,0.330078,1.014404,6.774902,24.597168,1.342773
130.7072566,33.88086440000001,0.030518,0.138184,1.028809,-15.014648,17.883301,-16.235352
130.70725389999998,33.88086259999999,0.030518,0.138184,1.028809,-15.014648,17.883301,-16.235352
130.7072512,33.88086080000001,-0.049316,0.354248,0.985596,2.990723,8.300781,-22.460938
130.7072485,33.880859,-0.008789,0.115234,1.231201,-24.291992,19.348145,-31.372070
130.70724579999998,33.880857199999994,-0.204102,0.142578,1.082275,12.023926,-15.258789,-29.541016
130.7072431,33.88085540000001,-0.131348,0.421143,1.156250,11.718750,3.417969,-28.076172
130.7072404,33.880853599999995,-0.040039,0.229980,0.977051,5.737305,0.244141,-3.234863
130.7072377,33.88085180000001,-0.151855,0.140137,0.941162,19.775391,-4.882812,-4.272461
130.707235,33.88085,-0.056885,0.245117,0.906494,8.728027,1.892090,-1.464844
130.707232,33.88084820000001,-0.056885,0.245117,0.906494,8.728027,1.892090,-1.464844
130.70722899999998,33.880846399999996,-0.084229,-0.015869,1.100830,-28.930664,14.953613,-2.136230
130.707226,33.880844599999996,0.008057,0.161621,1.002686,2.502441,-10.498047,2.624512
130.707223,33.8808428,-0.150146,0.169922,0.852783,33.020020,2.624512,12.390137
130.70722,33.88084100000001,0.147217,0.159668,1.069092,10.253906,-1.281738,13.000488
130.70721699999999,33.8808392,-0.061768,0.265137,1.210938,-12.084961,7.995605,-2.685547
130.707214,33.880837400000004,-0.173096,0.454834,0.710938,6.042480,27.404785,-20.629883
130.707211,33.880835600000005,-0.173096,0.454834,0.710938,6.042480,27.404785,-20.629883
130.70720799999998,33.88083379999999,0.115234,0.210449,0.955322,-14.770508,9.704590,-15.197754
130.707205,33.880832,0.078613,0.197266,1.205322,-21.606445,-6.530762,1.403809
130.70720179999998,33.88083029999999,-0.114014,0.308350,1.109131,6.652832,-3.295898,-4.760742
130.7071986,33.8808286,-0.012207,0.358887,1.129150,17.639160,-8.239746,2.502441
130.7071954,33.880826899999995,-0.068359,0.036865,1.003174,-14.770508,-12.145996,-3.112793
130.7071922,33.880825200000004,0.017822,-0.037598,1.111572,-4.516602,-17.395020,-4.882812
130.707189,33.8808235,-0.058350,-0.019775,0.855713,7.263184,-1.770020,-7.995605
130.7071858,33.88082179999999,-0.058350,-0.019775,0.855713,7.263184,-1.770020,-7.995605
130.7071826,33.8808201,-0.021240,0.089355,0.678711,6.042480,-27.221680,-5.737305
130.7071794,33.880818399999995,-0.104004,0.213867,1.516602,-3.112793,7.568359,9.887695
130.70717620000002,33.880816700000004,-0.056152,0.166992,0.717285,29.724121,-16.296387,1.831055
130.707173,33.880815,0.097656,0.277100,0.887451,3.234863,9.460449,-9.216309
130.70716950000002,33.8808135,-0.161865,0.691162,1.428711,-13.244629,-6.347656,-12.695312
130.707166,33.880812,-0.139893,-0.029053,0.967773,-10.498047,-9.948730,-1.281738
130.7071625,33.8808105,-0.139893,-0.029053,0.967773,-10.498047,-9.948730,-1.281738
130.707159,33.88080899999999,-0.068359,0.181641,0.922119,2.258301,-4.577637,7.019043
130.7071555,33.8808075,-0.105225,0.408936,1.037109,8.666992,11.230469,-7.629395
130.707152,33.88080600000001,0.009033,0.350342,1.105469,12.268066,-16.174316,0.244141
130.7071485,33.880804499999996,0.009033,0.308350,1.078613,10.437012,-22.094727,8.789062
130.707145,33.880803,-0.077881,0.193359,1.429688,-21.057129,3.479004,5.859375
130.70714149999998,33.8808015,-0.039795,0.079346,0.748047,2.563477,2.685547,10.803223
130.707138,33.8808,-0.085693,0.411621,1.255127,-6.408691,0.366211,29.846191
130.7071345,33.8807983,-0.085693,0.411621,1.255127,-6.408691,0.366211,29.846191
130.70713099999998,33.8807966,-0.081055,0.138916,1.257080,-11.657715,2.807617,11.230469
130.70712749999998,33.8807949,-0.035645,0.359863,0.712891,6.530762,19.592285,-20.812988
130.707124,33.88079320000001,0.053955,0.182861,1.071289,-20.263672,22.094727,-24.230957
130.70712049999997,33.880791499999994,-0.104492,0.148438,0.991211,9.277344,-9.887695,-4.699707
130.70711699999998,33.880789799999995,-0.070068,0.101318,1.444336,-21.362305,26.367188,-3.417969
130.7071135,33.880788100000004,-0.073730,0.307617,1.334717,-21.545410,-2.136230,-2.929688
130.70711,33.880786400000005,-0.073730,0.307617,1.334717,-21.545410,-2.136230,-2.929688
130.70710649999998,33.8807847,-0.091309,0.295410,1.085205,6.652832,1.037598,8.422852
130.707103,33.880783,0.036377,0.149902,1.071289,4.089355,-12.939453,-0.244141
130.7070991,33.8807811,0.016846,0.200928,1.040527,-14.892578,3.662109,-4.821777
130.7070952,33.880779200000006,0.185303,-0.023926,1.213623,-24.902344,-14.282227,2.319336
130.7070913,33.880777300000005,-0.040771,0.440430,1.041748,-16.296387,-3.723145,5.493164
130.7070874,33.880775400000005,0.029541,0.369141,1.203857,-13.732910,-10.009766,17.150879
130.7070835,33.880773500000004,-0.045166,0.308838,1.291992,-22.094727,21.911621,0.854492
130.7070796,33.880771599999996,-0.045166,0.308838,1.291992,-22.094727,21.911621,0.854492
130.7070757,33.880769699999995,-0.013184,0.039062,0.787354,-64.147949,36.376953,-7.446289
130.7070718,33.880767799999994,-0.095459,0.124756,0.806152,2.624512,11.535645,-16.845703
130.7070679,33.8807659,-0.237793,0.249512,1.133545,15.136719,1.831055,-17.089844
130.707064,33.880764,0.046387,0.370605,0.848633,16.235352,-19.226074,12.145996
130.7070601,33.880762000000004,-0.059814,0.462646,0.986816,-3.173828,12.451172,2.685547
130.7070562,33.88076,0.092285,0.395752,1.378174,-0.305176,13.610840,-11.413574
130.7070523,33.88075799999999,0.092285,0.395752,1.378174,-0.305176,13.610840,-11.413574
130.7070484,33.880756,-0.122559,0.156982,1.127197,-8.850098,14.648438,-11.047363
130.7070445,33.880753999999996,0.049316,0.410889,1.350586,-27.038574,-4.272461,-3.112793
130.7070406,33.880752,-0.104004,0.006104,0.875244,-34.484863,12.451172,-6.164551
130.7070367,33.880750000000006,-0.125977,0.166748,0.977051,-10.742188,-6.835938,-3.295898
130.70703279999998,33.880748,-0.079102,0.256592,1.360352,4.516602,-8.911133,-2.563477
130.70702889999998,33.880745999999995,-0.129395,0.129639,0.880615,-1.220703,-1.037598,-9.033203
130.707025,33.880744,-0.050293,0.003418,0.992920,-15.380859,10.925293,-17.456055
130.7070211,33.8807421,-0.050293,0.003418,0.992920,-15.380859,10.925293,-17.456055
130.7070172,33.880740200000005,-0.049072,0.124756,1.124268,-31.066895,-0.427246,8.850098
130.7070133,33.880738300000004,0.030762,0.346436,1.145264,-27.709961,16.479492,7.934570
130.7070094,33.8807364,0.019775,0.292969,1.527588,-17.089844,4.272461,5.737305
130.70700549999998,33.880734499999996,-0.207275,0.426758,1.104736,-3.662109,22.155762,-3.417969
130.70700159999998,33.880732599999995,-0.013428,0.279785,1.135498,8.361816,-10.437012,3.906250
130.7069977,33.880730699999994,-0.034180,-0.031006,1.046631,8.911133,-0.061035,-8.544922
130.7069938,33.88072879999999,-0.034180,-0.031006,1.046631,8.911133,-0.061035,-8.544922
130.7069899,33.8807269,-0.239990,0.198730,0.942139,11.779785,10.864258,-11.535645
130.706986,33.880725,0.125977,0.060547,1.634521,-47.912598,5.798340,0.549316
130.7069822,33.880722999999996,-0.082764,0.231445,0.793213,1.892090,-2.563477,-3.051758
130.7069784,33.880720999999994,-0.206787,0.280762,1.019287,3.540039,-0.549316,1.037598
130.7069746,33.88071899999999,0.053223,0.243408,1.215820,-27.343750,-3.417969,22.949219
130.7069708,33.88071699999999,-0.077393,0.186279,1.213623,-15.258789,21.728516,21.423340
130.70696700000002,33.88071500000001,0.135498,0.052979,1.048096,13.488770,3.356934,10.314941
130.70696320000002,33.88071300000001,0.135498,0.052979,1.048096,13.488770,3.356934,10.314941
130.70695940000002,33.880711000000005,-0.031738,0.233154,1.083740,4.394531,19.897461,2.258301
130.70695560000001,33.880709,0.244629,0.358887,0.891602,4.577637,18.615723,-0.061035
130.7069518,33.880707,-0.063477,0.269287,0.777832,-26.428223,42.846680,-20.874023
130.706948,33.880705,0.042725,-0.150635,1.103516,-42.785645,19.409180,-12.084961
130.70694400000002,33.8807029,0.003662,0.241699,0.545654,23.559570,-35.766602,-12.817383
130.70694,33.8807008,-0.139404,0.307129,0.968262,-3.906250,7.568359,-7.812500
130.706936,33.8806987,-0.139404,0.307129,0.968262,-3.906250,7.568359,-7.812500
130.706932,33.88069659999999,0.132812,-0.110840,1.104492,-30.090332,-22.888184,8.789062
130.706928,33.880694500000004,0.017334,0.314209,0.922119,6.713867,-10.253906,12.512207
130.70692400000001,33.88069240000001,0.043945,0.304443,1.385498,-8.056641,-0.610352,-0.183105
130.70692,33.8806903,0.154053,0.256592,0.765869,5.920410,6.347656,17.761230
130.706916,33.8806882,0.025635,0.181152,0.784668,12.878418,-4.150391,4.150391
130.706912,33.8806861,0.164062,0.694092,1.548340,-3.112793,18.432617,-10.437012
130.706908,33.880684,-0.026367,0.091553,0.867432,-22.949219,-1.098633,-17.272949
130.706904,33.88068200000001,-0.026367,0.091553,0.867432,-22.949219,-1.098633,-17.272949
130.7069,33.88068,-0.002686,-0.198242,0.690186,11.657715,-11.657715,-2.746582
130.706896,33.880678,-0.061035,0.212891,0.758789,12.451172,7.019043,-4.638672
130.70689199999998,33.880675999999994,-0.017334,0.147949,1.312988,-18.188477,-8.911133,14.526367
130.706888,33.880674,-0.003906,0.080566,0.878906,3.540039,1.770020,-2.807617
130.706884,33.88067200000001,-0.053467,0.173096,1.010986,-0.061035,7.934570,-1.037598
130.70687999999998,33.88067,-0.136719,-0.691406,1.207275,-40.222168,21.545410,2.319336
130.706876,33.88066800000001,-0.136719,-0.691406,1.207275,-40.222168,21.545410,2.319336
130.70687199999998,33.880666,0.086426,0.249756,0.535400,10.131836,20.019531,1.892090
130.706868,33.880664,-0.038330,0.480225,0.720215,19.714355,-0.610352,-10.009766
130.70686379999998,33.8806618,-0.050537,0.125488,1.292969,-8.300781,-15.136719,3.356934
130.7068596,33.88065960000001,0.059082,-0.266602,1.050293,-97.656250,2.746582,-3.967285
130.7068554,33.880657400000004,0.058594,0.109375,0.669189,66.650391,-22.766113,-8.850098
130.7068512,33.8806552,-0.050049,-0.022705,1.393066,-10.375977,9.399414,-0.305176
130.70684699999998,33.880652999999995,0.151367,0.255859,0.872314,15.441895,-11.230469,5.981445
130.7068428,33.880650800000005,0.151367,0.255859,0.872314,15.441895,-11.230469,5.981445
130.7068386,33.8806486,0.104248,0.216309,0.891113,13.244629,-22.338867,3.234863
130.7068344,33.880646399999996,0.020996,0.323975,1.411133,-3.356934,4.882812,8.850098
130.7068302,33.880644200000006,-0.010986,0.435791,0.842041,7.995605,-4.760742,-4.943848
130.706826,33.880642,0.055176,0.028076,1.117920,-6.408691,-5.310059,-14.343262
130.7068217,33.8806397,-0.137207,0.253418,0.919922,-1.586914,5.798340,-4.882812
130.7068174,33.880637400000005,-0.017334,0.049316,0.976318,23.132324,-17.761230,1.770020
130.7068131,33.8806351,-0.017334,0.049316,0.976318,23.132324,-17.761230,1.770020
130.7068088,33.8806328,-0.034912,0.051514,0.730713,-44.799805,-16.784668,-1.708984
130.7068045,33.8806305,-0.030518,0.353271,0.997070,6.286621,13.305664,8.728027
130.7068002,33.880628200000004,0.094482,0.380371,1.128418,-3.967285,-9.765625,10.375977
130.7067959,33.880625900000005,-0.175537,0.086670,1.329590,-5.493164,5.187988,4.882812
130.7067916,33.8806236,-0.115967,-0.204590,1.139404,43.334961,-10.314941,2.563477
130.7067873,33.8806213,0.000488,0.114746,2.259766,16.296387,7.934570,-10.803223
130.706783,33.880619,0.019287,0.147461,1.061523,-10.070801,-25.817871,-8.422852
130.7067795,33.88061620000001,0.019287,0.147461,1.061523,-10.070801,-25.817871,-8.422852
130.706776,33.880613399999994,-0.263428,0.206299,1.727051,-29.235840,13.854980,-3.906250
130.7067725,33.8806106,-0.051514,0.427734,1.216309,20.446777,-7.568359,7.568359
130.706769,33.88060780000001,-0.158691,0.305664,0.865479,-5.615234,-9.704590,-0.244141
130.70676550000002,33.88060500000002,-0.040771,0.343994,0.971924,9.521484,-0.671387,8.911133
130.706762,33.8806022,0.049805,0.125732,1.139160,-8.911133,16.052246,8.666992
130.7067585,33.88059940000001,0.063721,0.283691,1.103271,7.080078,7.568359,-0.244141
130.70675500000002,33.88059660000001,0.063721,0.283691,1.103271,7.080078,7.568359,-0.244141
130.7067515,33.88059379999999,0.017822,0.314941,0.986572,18.493652,9.521484,-8.300781
130.706748,33.880591,0.044922,0.052490,0.905273,17.211914,-14.038086,-8.239746
130.7067441,33.8805886,-0.059814,0.018066,0.984375,-8.728027,-29.174805,-2.075195
130.7067402,33.88058620000001,-0.177002,-0.453369,1.083496,-20.874023,8.850098,6.164551
130.7067363,33.8805838,-0.128906,0.303711,1.326660,-3.479004,21.118164,-5.859375
130.7067324,33.8805814,0.142578,-0.033203,1.133057,10.009766,-9.765625,2.136230
130.7067285,33.880579,0.030518,0.360352,0.928955,21.972656,-4.699707,2.746582
130.7067246,33.880576600000005,0.030518,0.360352,0.928955,21.972656,-4.699707,2.746582
130.7067207,33.880574200000005,-0.216797,0.728760,0.291260,77.392578,9.826660,1.281738
130.70671679999998,33.88057179999999,-0.083740,0.145264,1.516113,-12.207031,-10.437012,-3.601074
130.70671289999999,33.8805694,0.043701,-0.487061,0.550293,-39.855957,-6.835938,3.662109
130.706709,33.880567,-0.087158,0.241211,1.515625,20.996094,1.464844,-2.380371
130.7067052,33.8805647,-0.022705,0.124756,1.078613,-4.394531,-16.296387,6.530762
130.7067014,33.880562399999995,-0.147705,0.089600,1.032471,-8.117676,11.596680,-2.197266
130.70669759999998,33.8805601,-0.084961,0.226074,1.359863,-28.381348,37.414551,-8.361816
130.70669379999998,33.88055779999999,-0.084961,0.226074,1.359863,-28.381348,37.414551,-8.361816
130.70668999999998,33.88055549999999,-0.081299,0.512451,1.486816,31.738281,36.926270,-5.432129
130.7066862,33.88055320000001,-0.008301,0.154785,0.911133,-5.981445,-13.122559,-7.690430
130.7066824,33.8805509,0.122314,0.129639,0.875000,16.967773,-28.320312,-16.113281
130.7066786,33.880548600000004,0.010254,-0.493652,1.083008,6.591797,-11.901855,11.535645
130.7066748,33.8805463,-0.123047,-0.206055,0.574219,-11.413574,23.498535,-3.234863
130.706671,33.880544,0.177979,-0.145752,2.073975,-53.894043,-26.611328,-10.009766
130.7066669,33.880542,0.177979,-0.145752,2.073975,-53.894043,-26.611328,-10.009766
130.7066628,33.88054,0.812256,0.221680,0.484375,111.145020,-91.186523,-47.729492
130.7066587,33.880538,0.097656,0.023682,0.969971,-98.388672,-35.034180,-7.934570
130.7066546,33.880536000000006,-0.304199,0.588867,1.033447,381.591797,122.741699,-13.671875
130.7066505,33.880534,0.145508,-0.969238,0.628418,139.282227,0.427246,-18.066406
130.70664639999998,33.880531999999995,-0.158691,0.037354,1.302490,-1.281738,12.145996,-7.446289
130.7066423,33.88053,0.138184,0.060303,1.199463,8.117676,-16.784668,-14.465332
130.7066382,33.880528,-0.149414,-0.319336,0.641602,-24.414062,27.709961,-15.136719
130.7066341,33.880526,-0.149414,-0.319336,0.641602,-24.414062,27.709961,-15.136719
130.70663,33.880524,0.091553,0.070312,0.844482,-9.765625,-3.845215,-2.502441
130.7066261,33.8805223,-0.113281,-0.126953,0.791748,4.150391,9.826660,-5.615234
130.7066222,33.880520600000004,0.006836,0.439209,1.242432,-10.803223,-4.943848,-7.141113
130.7066183,33.880518900000006,-0.024902,0.293457,1.269775,-4.028320,3.784180,-1.953125
130.7066144,33.88051720000001,-0.020020,0.156250,1.045166,-24.902344,-7.934570,3.967285
130.7066105,33.88051550000001,-0.048584,0.359863,1.282715,17.028809,-9.277344,15.258789
130.7066066,33.880513799999996,-0.048584,0.359863,1.282715,17.028809,-9.277344,15.258789
130.7066027,33.8805121,-0.049561,0.291748,0.229492,25.878906,-1.647949,-4.577637
130.7065988,33.8805104,-0.073242,-0.324951,1.527100,-13.122559,-2.014160,-2.502441
130.7065949,33.8805087,0.110107,0.828857,-0.001465,128.417969,-75.012207,-4.577637
130.706591,33.880507,0.263916,-0.315674,0.675049,116.699219,-131.530762,23.925781
130.7065874,33.880505199999995,0.025879,-1.342285,3.825439,-92.285156,-151.489258,-11.413574
130.7065838,33.8805034,0.068604,-0.629883,2.622559,-124.206543,-126.281738,9.338379
130.70658020000002,33.88050160000001,0.034180,0.633057,1.168945,-59.020996,-18.798828,-2.685547
130.7065766,33.8804998,0.034180,0.633057,1.168945,-59.020996,-18.798828,-2.685547
130.706573,33.88049799999999,-0.014404,0.298096,1.021729,21.423340,-20.446777,11.657715
130.7065694,33.880496199999996,-0.107178,0.175781,0.616211,4.577637,1.464844,19.287109
130.70656580000002,33.8804944,0.287354,0.096191,0.875000,44.250488,-43.029785,3.845215
130.7065622,33.8804926,-0.012695,0.212402,1.171387,2.868652,24.658203,-0.671387
130.7065586,33.88049079999999,0.094238,0.370605,0.903076,16.479492,-24.719238,12.390137
130.706555,33.880489,0.011230,-0.160889,1.384033,-55.908203,24.597168,4.943848
130.7065512,33.880486999999995,0.011230,-0.160889,1.384033,-55.908203,24.597168,4.943848
130.7065474,33.880485,-0.026855,0.233887,0.714600,-16.784668,-4.394531,-3.845215
130.7065436,33.880483,-0.126221,0.263184,1.160400,-0.610352,3.845215,0.122070
130.7065398,33.880480999999996,-0.187744,0.104004,1.572998,-24.475098,0.000000,4.394531
130.706536,33.880478999999994,-0.016602,0.593018,1.094727,21.118164,-21.179199,-0.732422
130.7065322,33.880477,-0.190186,0.035156,0.940918,-28.015137,21.850586,7.385254
130.7065284,33.880475,0.209229,0.221680,1.634277,-3.906250,-19.653320,10.986328
130.7065246,33.880472999999995,-0.062256,0.213379,0.916260,28.442383,3.784180,6.713867
130.7065208,33.880471,-0.062256,0.213379,0.916260,28.442383,3.784180,6.713867
130.706517,33.880469,-0.013916,0.227783,1.310303,-25.207520,28.869629,-3.112793
130.70651329999998,33.880466899999995,0.151367,0.227783,1.336670,0.732422,-8.850098,0.549316
130.7065096,33.880464800000006,0.057129,0.322021,0.780029,24.353027,-29.418945,18.676758
130.7065059,33.8804627,-0.063477,0.232910,1.225342,-6.347656,3.967285,1.953125
130.7065022,33.8804606,-0.037842,0.550537,0.919678,44.555664,-31.860352,-10.437012
130.7064985,33.88045850000001,-0.230957,0.113037,1.638184,-145.751953,46.386719,6.591797
130.7064948,33.8804564,-0.230957,0.113037,1.638184,-145.751953,46.386719,6.591797
130.7064911,33.8804543,-0.219482,0.314697,0.435547,71.777344,43.273926,12.573242
130.7064874,33.88045219999999,-0.052246,-0.236572,0.684326,-0.732422,-45.166016,22.888184
130.7064837,33.880450100000004,-0.047119,0.045166,0.523438,25.451660,39.184570,33.813477
130.70648,33.880448,-0.012695,-0.111084,1.135254,8.239746,78.552246,21.667480
130.7064765,33.88044560000001,0.088379,0.298096,0.918701,14.099121,37.963867,-32.531738
130.706473,33.880443199999995,-0.082764,0.042480,1.321533,-4.455566,35.583496,-15.441895
130.7064695,33.880440799999995,-0.170898,0.185303,1.159180,9.155273,6.408691,0.061035
130.706466,33.8804384,-0.170898,0.185303,1.159180,9.155273,6.408691,0.061035
130.7064625,33.88043599999999,-0.038086,-0.445068,1.492432,-2.441406,10.070801,17.761230
130.706459,33.880433599999996,0.010498,-0.048096,0.891357,-21.423340,19.470215,-8.544922
130.7064555,33.880431200000004,-0.270752,-0.324219,1.519043,-64.025879,26.489258,-22.521973
130.706452,33.880428800000004,-0.338867,0.332031,0.849609,-6.347656,40.527344,-39.672852
130.7064485,33.88042639999999,0.197510,0.302246,0.491699,44.433594,-41.442871,-8.605957
130.706445,33.880424,0.049316,-0.002686,0.947021,36.132812,-33.813477,23.315430
130.7064412,33.8804216,0.049316,-0.002686,0.947021,36.132812,-33.813477,23.315430
130.7064374,33.88041919999999,0.101807,-0.161133,1.000977,6.958008,-26.977539,14.160156
130.7064336,33.88041679999999,-0.102051,0.201416,1.046631,0.244141,-4.028320,4.943848
130.7064298,33.88041439999999,0.043701,0.105469,1.305420,5.126953,7.690430,-3.662109
130.70642600000002,33.88041200000001,-0.116943,0.563721,1.471924,-37.536621,36.376953,-4.638672
130.70642220000002,33.88040960000001,0.003906,0.384521,1.011230,-26.428223,17.761230,-7.812500
130.70641840000002,33.88040720000001,0.139648,-0.123779,1.385254,-30.761719,-15.686035,-4.455566
130.70641460000002,33.88040480000001,-0.065674,0.418701,0.912109,2.014160,3.540039,-16.723633
130.70641080000001,33.8804024,-0.065674,0.418701,0.912109,2.014160,3.540039,-16.723633
130.706407,33.8804,0.068604,0.092529,1.030273,0.305176,-22.277832,-19.470215
130.7064029,33.8803978,0.081299,0.520264,1.170410,9.948730,-18.554688,-3.845215
130.70639880000002,33.88039560000001,0.031494,0.015137,1.345459,-11.413574,-15.258789,-2.258301
130.7063947,33.880393399999996,0.107178,-0.142090,1.212891,18.798828,-25.634766,1.892090
130.70639060000002,33.880391200000005,-0.188232,0.289307,1.146973,-11.718750,19.470215,-16.174316
130.7063865,33.880389,0.028809,0.450928,1.061523,-3.784180,2.136230,-2.563477
130.7063824,33.8803868,-0.297852,0.547852,2.729492,37.780762,31.555176,-1.586914
130.7063783,33.880384600000006,-0.297852,0.547852,2.729492,37.780762,31.555176,-1.586914
130.7063742,33.880382399999995,-0.029053,-0.757324,-0.809326,25.878906,-9.155273,27.099609
130.70637010000002,33.880380200000005,-0.190430,0.883545,0.778076,-190.490723,1.953125,-45.776367
130.706366,33.880378,-0.098633,-0.662109,1.395020,-64.453125,81.420898,-34.118652
130.7063619,33.880376,-0.108154,0.215332,0.865723,44.677734,31.921387,-2.563477
130.7063578,33.880374,-0.084229,0.128418,2.099854,38.208008,5.432129,5.249023
130.7063537,33.880372,-0.334961,0.260010,2.655029,-10.375977,-83.435059,11.535645
130.7063496,33.880370000000006,-0.091797,0.411377,0.320068,43.334961,-14.770508,17.333984
130.7063455,33.880368000000004,-0.091797,0.411377,0.320068,43.334961,-14.770508,17.333984
130.70634139999999,33.880365999999995,0.094727,0.278320,1.751709,52.429199,33.081055,35.034180
130.7063373,33.880364,-0.026855,-0.395508,0.771240,-17.578125,6.958008,20.202637
130.7063332,33.880362,-0.171387,1.003662,1.128174,-3.906250,28.503418,-3.479004
130.7063291,33.88036,0.016846,0.234131,0.640625,-24.475098,5.249023,-2.197266
130.706325,33.880358,0.257080,-0.769043,1.004639,6.896973,38.818359,-5.554199
130.7063208,33.880355699999996,-0.109375,0.182861,1.018311,16.540527,-2.380371,-25.695801
130.7063166,33.880353400000004,-0.109375,0.182861,1.018311,16.540527,-2.380371,-25.695801
130.7063124,33.880351100000006,-0.314453,0.203613,0.614502,3.173828,5.187988,20.263672
130.7063082,33.8803488,-0.039551,0.403320,0.617676,46.386719,-4.333496,0.549316
130.706304,33.880346499999995,0.313721,-0.412842,1.078125,-1.037598,-28.381348,-3.356934
130.7062998,33.8803442,0.041504,0.034180,1.153076,-39.855957,-9.887695,1.464844
130.7062956,33.8803419,-0.145264,0.115967,1.043457,-7.324219,-11.291504,24.902344
130.7062914,33.8803396,0.160889,0.420410,1.209961,15.380859,-6.408691,15.747070
130.70628720000002,33.88033730000001,-0.030273,0.317627,1.256836,13.122559,-12.207031,7.568359
130.706283,33.880335,-0.030273,0.317627,1.256836,13.122559,-12.207031,7.568359
130.7062787,33.8803326,0.059082,-0.147461,1.285645,-5.065918,8.300781,6.286621
130.7062744,33.8803302,0.187256,0.263916,1.286377,22.033691,-16.357422,5.676270
130.7062701,33.8803278,0.017822,0.007812,1.040771,12.939453,6.042480,7.873535
130.7062658,33.880325400000004,0.066650,0.283447,1.131104,5.065918,2.624512,-2.258301
130.7062615,33.880323000000004,0.065186,0.145264,1.257080,-55.908203,-2.014160,-12.451172
130.7062572,33.8803206,-0.005127,0.085449,1.243896,-1.281738,-1.953125,-11.169434
130.7062529,33.8803182,0.112305,0.008545,1.095215,-17.883301,10.986328,-7.141113
130.7062486,33.8803158,0.112305,0.008545,1.095215,-17.883301,10.986328,-7.141113
130.7062443,33.8803134,-0.055420,0.376709,0.649170,14.587402,12.084961,-20.446777
130.70624,33.880311,-0.144287,0.642334,0.802734,40.466309,1.098633,-27.038574
130.7062358,33.8803085,-0.147461,0.003174,0.885010,-12.390137,-17.700195,5.554199
130.7062316,33.88030599999999,-0.052490,0.083008,1.146973,-43.518066,4.272461,24.230957
130.70622740000002,33.880303500000004,0.020752,0.296875,1.102295,-4.577637,-15.563965,8.239746
130.7062232,33.880301,0.040283,0.315186,0.908447,10.070801,1.586914,-4.821777
130.706219,33.880298499999995,0.040283,0.315186,0.908447,10.070801,1.586914,-4.821777
130.7062148,33.880295999999994,0.046143,0.037598,1.451904,3.173828,-2.136230,-11.108398
130.7062106,33.88029349999999,-0.156738,0.229980,0.852783,-6.469727,13.610840,-1.708984
130.7062064,33.88029100000001,0.122803,0.400635,1.376465,-8.850098,11.779785,-12.207031
130.7062022,33.8802885,-0.017578,0.305908,0.617920,22.338867,1.342773,-7.995605
130.706198,33.880286,0.050293,0.207764,1.315186,-0.244141,-6.530762,6.469727
130.7061932,33.8802837,-0.239746,0.510010,0.737793,-3.234863,22.460938,13.366699
130.7061884,33.8802814,-0.100098,-0.014648,1.172119,-2.197266,7.873535,9.948730
130.7061836,33.880279099999996,-0.100098,-0.014648,1.172119,-2.197266,7.873535,9.948730
130.7061788,33.8802768,0.014160,0.172607,1.076904,-50.964355,0.549316,6.103516
130.706174,33.8802745,0.050293,0.595215,1.056396,29.418945,24.597168,-6.652832
130.7061692,33.8802722,0.033203,-0.054932,0.825439,24.108887,-19.165039,-15.563965
130.7061644,33.8802699,-0.141357,0.120605,1.452148,-44.433594,30.273438,-9.521484
130.7061596,33.880267599999996,-0.088379,0.305420,1.229492,-9.094238,-12.634277,-9.094238
130.7061548,33.8802653,-0.185303,-0.008789,1.159180,-22.277832,13.061523,-3.417969
130.70615,33.880263,-0.031250,-0.081787,1.131592,-22.277832,13.061523,-3.417969
130.70614510000001,33.880260500000006,-0.031250,-0.081787,1.131592,-37.841797,4.333496,5.432129
130.7061402,33.88025799999999,-0.038574,0.172363,1.062988,-8.361816,-22.949219,3.112793
130.7061353,33.8802555,-0.039062,0.123535,0.500732,-19.226074,-9.277344,-1.708984
130.7061304,33.880253,-0.049561,0.401123,0.929688,23.437500,7.995605,2.563477
130.70612549999998,33.88025049999999,0.063232,0.101074,1.107422,-9.887695,-9.216309,-10.681152
130.7061206,33.880247999999995,-0.209717,0.066650,1.046875,18.005371,15.869141,-3.906250
130.7061157,33.8802455,0.049072,0.045654,1.533691,-5.859375,12.512207,1.770020
130.7061108,33.88024300000001,0.049072,0.045654,1.533691,-5.859375,12.512207,1.770020
130.70610589999998,33.88024049999999,-0.061523,0.181885,1.355469,-48.706055,16.113281,-19.958496
130.706101,33.880238,-0.104492,0.306641,1.436035,-36.865234,7.019043,-4.089355
130.7060961,33.880235500000005,-0.178711,-0.344238,1.054199,-27.404785,2.075195,14.953613
130.7060912,33.880233000000004,-0.065186,0.244141,1.006836,-51.696777,-3.662109,18.066406
130.70608629999998,33.88023049999999,0.160400,-0.002197,0.623779,51.879883,-12.573242,1.464844
130.7060814,33.880227999999995,0.056641,0.164307,0.969727,8.972168,-16.845703,-2.319336
130.7060765,33.880225499999995,-0.052490,0.200684,0.791992,8.972168,-16.845703,-2.319336
130.7060716,33.880223,-0.052490,0.200684,0.791992,9.521484,0.183105,13.366699
130.7060667,33.88022050000001,0.041504,0.198242,1.327637,-5.493164,9.582520,-9.338379
130.7060618,33.88021799999999,-0.052490,0.469971,0.820312,22.766113,9.887695,-17.089844
130.7060569,33.88021549999999,0.013428,0.314209,1.188477,9.399414,-31.982422,-6.225586
130.706052,33.880213,-0.169678,0.040039,0.706055,27.160645,17.883301,1.342773
130.7060471,33.8802107,0.034668,0.011230,1.584229,-63.171387,-14.648438,-6.286621
130.7060422,33.8802084,-0.077148,0.219482,0.424561,1.220703,5.249023,-8.300781
130.7060373,33.880206099999995,-0.077148,0.219482,0.424561,1.220703,5.249023,-8.300781
130.7060324,33.8802038,-0.004883,0.168213,1.071045,-45.166016,-7.385254,-7.080078
130.7060275,33.8802015,-0.119385,0.256836,1.442383,34.118652,-7.751465,3.479004
130.7060226,33.8801992,-0.104248,0.160156,0.836426,-27.648926,27.282715,-17.883301
130.70601770000002,33.8801969,0.071533,-0.008301,0.899414,27.099609,-38.330078,-6.347656
130.7060128,33.880194599999996,-0.104980,0.041748,1.354248,0.915527,3.173828,-6.347656
130.7060079,33.8801923,0.064453,0.023926,0.844971,25.268555,-21.545410,-4.638672
130.706003,33.88019,0.064453,0.023926,0.844971,25.268555,-21.545410,-4.638672
130.7059982,33.8801881,-0.133057,-0.176270,1.041260,-48.034668,20.874023,-0.671387
130.7059934,33.880186200000004,0.003662,0.230469,1.203857,-6.225586,0.183105,-2.624512
130.7059886,33.8801843,-0.240234,0.524414,0.780762,52.368164,2.319336,1.525879
130.7059838,33.8801824,-0.049316,0.270020,1.055176,36.560059,4.150391,5.371094
130.705979,33.8801805,-0.112305,0.508057,0.170654,10.314941,26.550293,-0.793457
130.70597419999999,33.880178599999994,-0.006104,0.183350,0.507324,-60.180664,7.629395,-3.540039
130.7059694,33.88017669999999,-0.017334,-0.128906,0.696289,-22.399902,-5.249023,2.990723
130.7059646,33.88017479999999,-0.017334,-0.128906,0.696289,-22.399902,-5.249023,2.990723
130.7059598,33.8801729,0.179199,0.040283,1.916016,-28.442383,-15.686035,-4.577637
130.705955,33.880171,-0.107178,0.266846,0.749512,4.516602,-14.099121,-11.962891
130.70595,33.8801688,-0.144775,0.375977,0.280273,31.982422,11.840820,-5.676270
130.70594499999999,33.880166599999995,-0.039062,0.022461,1.628174,3.112793,-4.699707,7.568359
130.70594,33.8801644,-0.200684,0.272705,0.978760,-18.554688,16.235352,10.620117
130.70593499999998,33.880162199999994,0.130615,0.131592,1.083740,-10.437012,-3.662109,5.493164
130.70593,33.880160000000004,0.130615,0.131592,1.083740,-10.437012,-3.662109,5.493164
130.705925,33.880157800000006,-0.130371,0.082275,1.235596,-2.685547,10.009766,1.953125
130.70592,33.8801556,0.023682,-0.222168,1.461914,-53.283691,-5.371094,-2.746582
130.705915,33.880153400000005,-0.118652,0.271973,0.895752,1.037598,4.882812,6.469727
130.70591,33.8801512,-0.062500,0.248291,0.847168,-6.225586,6.225586,0.122070
130.705905,33.880149,0.228027,0.407959,0.951416,21.118164,15.625000,-7.507324
130.7059001,33.880146700000005,-0.051758,0.316650,1.154053,-0.122070,7.019043,0.305176
130.70589520000001,33.880144400000006,-0.057861,-0.129639,1.220703,8.239746,-15.747070,15.075684
130.7058903,33.88014209999999,-0.057861,-0.129639,1.220703,8.239746,-15.747070,15.075684
130.7058854,33.880139799999995,-0.174805,0.381836,0.644287,12.329102,14.099121,5.187988
130.7058805,33.880137500000004,0.022217,0.197266,1.234375,-26.245117,24.353027,-0.610352
130.7058756,33.880135200000005,0.011963,0.074463,1.136963,-22.399902,3.356934,0.061035
130.70587070000002,33.88013290000001,0.119873,0.301270,1.294189,1.464844,-19.226074,-9.887695
130.7058658,33.880130599999994,-0.021973,0.380859,1.095215,11.108398,-18.432617,1.464844
130.7058609,33.880128299999996,0.124756,0.351318,1.121582,20.507812,-2.624512,7.446289
130.705856,33.880126,0.124756,0.351318,1.121582,20.507812,-2.624512,7.446289
130.70585110000002,33.8801234,0.067139,0.267090,0.898682,8.544922,1.098633,0.549316
130.7058462,33.88012079999999,-0.012939,0.050049,1.376465,-59.570312,-1.892090,2.197266
130.7058413,33.8801182,-0.120361,0.514893,1.049072,23.132324,8.972168,7.446289
130.7058364,33.8801156,0.096924,0.172852,0.474854,13.305664,9.399414,-9.460449
130.7058315,33.88011299999999,-0.022461,0.322510,1.341797,-24.353027,2.868652,0.671387
130.7058266,33.88011039999999,-0.060059,0.260986,1.013184,7.690430,-7.690430,2.746582
130.7058217,33.8801078,-0.124023,0.156494,1.456787,3.173828,-12.329102,9.521484
130.7058168,33.8801052,-0.124023,0.156494,1.456787,3.173828,-12.329102,9.521484
130.7058119,33.880102599999994,-0.025391,0.155273,1.112061,2.502441,20.629883,-1.342773
130.705807,33.8801,0.135010,-0.029053,0.842773,-9.765625,-2.136230,2.929688
130.7058023,33.8800976,-0.061279,0.136963,1.461426,-16.906738,36.132812,11.413574
130.70579759999998,33.88009519999999,0.019287,0.055664,1.050537,4.638672,9.399414,6.042480
130.7057929,33.88009280000001,0.017578,0.056885,1.026611,-4.821777,13.305664,-23.559570
130.7057882,33.8800904,-0.084961,-0.054199,0.782227,-19.897461,-13.122559,-9.826660
130.7057835,33.880088,-0.084961,-0.054199,0.782227,-19.897461,-13.122559,-9.826660
130.7057788,33.8800856,-0.062256,0.112793,0.740479,20.751953,-46.264648,-1.892090
130.70577409999999,33.880083199999994,-0.091064,0.489014,0.608154,20.751953,-19.470215,1.831055
130.7057694,33.88008080000001,-0.130127,0.216309,1.286621,-4.821777,9.887695,11.474609
130.7057647,33.8800784,0.018311,-0.065918,1.267090,-15.258789,9.338379,12.817383
130.70576,33.880076,-0.161865,0.051270,1.660400,34.851074,24.291992,3.662109
130.7057552,33.8800735,0.119385,0.239014,0.448975,53.405762,6.103516,-12.756348
130.7057504,33.880071,-0.117920,0.075195,0.749023,17.883301,8.056641,-18.249512
130.7057456,33.8800685,-0.117920,0.075195,0.749023,17.883301,8.056641,-18.249512
130.7057408,33.880066,-0.054199,0.384521,0.774902,36.865234,-4.821777,-13.305664
130.705736,33.880063500000006,0.055664,0.026367,1.014160,-9.948730,-31.311035,2.990723
130.7057312,33.880061000000005,-0.127686,0.344971,1.421875,-16.357422,-14.099121,-4.882812
130.7057264,33.880058500000004,-0.089355,0.548828,1.577637,-18.188477,-4.333496,-0.793457
130.7057216,33.880056,0.188965,0.200684,1.066895,-2.746582,-13.793945,4.455566
130.7057168,33.8800535,0.092285,0.226562,1.455811,30.212402,-11.352539,12.268066
130.705712,33.880051,0.092285,0.226562,1.455811,30.212402,-11.352539,12.268066
130.7057074,33.880048599999995,0.008057,0.225342,0.525391,6.408691,-10.925293,-1.403809
130.7057028,33.8800462,0.048340,-0.107178,1.505615,-10.925293,-6.713867,-5.859375
130.7056982,33.880043799999996,-0.146729,0.367676,1.162354,-6.225586,29.785156,-0.793457
130.70569360000002,33.8800414,-0.091064,0.212402,1.152100,-21.362305,8.117676,-3.845215
130.705689,33.880039,0.011230,-0.027100,1.208984,-22.216797,15.441895,-3.479004
130.7056844,33.8800366,-0.015869,0.059082,0.843018,-27.404785,13.183594,-0.244141
130.7056798,33.880034200000004,-0.058350,0.312256,1.191406,4.333496,12.695312,7.385254
130.7056752,33.8800318,-0.058350,0.312256,1.191406,4.333496,12.695312,7.385254
130.70567060000002,33.880029400000005,0.093994,-0.007080,0.939941,-24.047852,-11.474609,3.234863
130.705666,33.880027,-0.171387,0.021484,0.894775,26.611328,16.967773,-5.187988
130.70566150000002,33.880025,0.064453,0.232178,0.845703,12.817383,12.756348,-10.681152
130.705657,33.880022999999994,0.017822,0.123779,1.319580,-6.591797,-15.686035,-20.202637
130.7056525,33.880021,0.107666,0.339600,0.921143,4.089355,-19.165039,-10.009766
130.705648,33.88001899999999,-0.110352,0.371582,1.941406,-12.451172,12.145996,-6.164551
130.7056435,33.880016999999995,-0.110352,0.371582,1.941406,-12.451172,12.145996,-6.164551
130.70563900000002,33.88001500000001,-0.028320,0.114258,1.240234,14.465332,-1.831055,-1.037598
130.7056345,33.880013,0.144043,0.274414,1.341064,14.587402,-7.385254,-3.723145
130.70563,33.880011,0.036133,0.238037,1.094971,2.563477,-28.198242,4.516602
130.7056255,33.880008999999994,-0.003906,0.130859,1.469238,-32.226562,-17.333984,5.432129
130.705621,33.880007,0.018066,0.095215,1.226562,2.868652,9.704590,-2.807617
130.7056168,33.880004899999996,-0.102051,0.267578,1.027100,8.056641,24.536133,-12.023926
130.7056126,33.88000279999999,0.028076,0.223145,1.017822,7.263184,-14.831543,5.249023
130.70560840000002,33.880000700000004,0.028076,0.223145,1.017822,7.263184,-14.831543,5.249023
130.7056042,33.8799986,0.058594,0.119629,0.953369,-22.277832,-20.568848,5.126953
130.7056,33.879996500000004,-0.074219,0.152100,1.279541,0.244141,5.859375,0.366211
130.7055958,33.8799944,-0.018799,-0.068604,0.441895,49.560547,-27.099609,-2.807617
130.7055916,33.8799923,-0.084229,0.169922,1.228516,-4.699707,7.690430,-6.530762
130.7055874,33.87999020000001,0.052490,-0.079590,0.995605,35.644531,-17.089844,-6.713867
130.7055832,33.879988100000006,-0.201172,0.342041,0.722168,39.611816,-10.314941,1.098633
130.705579,33.879986,-0.201172,0.342041,0.722168,39.611816,-10.314941,1.098633
130.705575,33.87998420000001,0.080811,0.013916,1.165039,-10.559082,-12.878418,8.544922
130.705571,33.879982399999996,-0.173340,0.075928,1.300781,-14.953613,11.535645,6.652832
130.705567,33.8799806,-0.035889,0.113037,1.306641,-28.930664,11.718750,-2.319336
130.70556299999998,33.879978799999996,-0.011719,-0.154053,1.451904,-51.391602,8.422852,-5.920410
130.705559,33.879977,-0.105469,0.067139,0.829346,-8.361816,-4.211426,6.896973
130.705555,33.879975200000004,0.004395,0.042969,1.066895,-5.065918,3.906250,7.141113
130.70555099999999,33.8799734,0.009277,0.191895,1.143799,-5.493164,11.962891,1.770020
130.705547,33.879971600000005,0.009277,0.191895,1.143799,-5.493164,11.962891,1.770020
130.70554299999998,33.87996979999999,0.074951,-0.009277,1.142822,-22.155762,-1.647949,-2.563477
130.705539,33.879968,-0.068604,0.053711,0.965332,-37.963867,8.605957,-2.807617
130.70553569999998,33.879966399999994,-0.066406,0.421387,1.165771,-20.080566,-0.488281,9.887695
130.70553239999998,33.879964799999996,-0.066406,0.257324,1.012939,-26.672363,-6.164551,-7.995605
130.7055291,33.879963200000006,-0.164551,0.256836,1.105713,-6.530762,9.277344,-1.770020
130.7055258,33.8799616,-0.099365,0.155273,1.073730,-13.610840,12.390137,5.737305
130.7055225,33.87996,-0.099365,0.155273,1.073730,-13.610840,12.390137,5.737305
130.7055192,33.8799584,0.069580,-0.075439,1.130127,14.892578,24.780273,10.375977
130.7055159,33.879956799999995,0.106201,0.217529,1.075195,17.395020,-10.437012,7.202148
130.70551260000002,33.879955200000005,0.042725,0.062744,0.816895,-12.390137,0.183105,5.310059
130.70550930000002,33.87995360000001,-0.146973,0.235352,0.756836,32.348633,1.098633,10.498047
130.705506,33.879952,-0.112793,0.227539,0.949219,31.616211,-5.310059,-12.939453
130.70550350000002,33.87995070000001,-0.089600,-0.006104,1.332764,-28.747559,0.366211,-0.427246
130.705501,33.879949399999994,-0.155029,-0.125244,1.038818,-28.747559,0.366211,-0.427246
130.7054985,33.8799481,-0.155029,-0.125244,1.038818,-9.277344,9.643555,-2.319336
130.705496,33.879946800000006,-0.141113,-0.011475,1.164795,35.339355,4.394531,-2.258301
130.7054935,33.87994549999999,0.134766,0.103760,1.385010,24.719238,5.859375,-9.399414
130.705491,33.8799442,-0.003418,0.075439,1.148682,-2.563477,-9.643555,-6.958008
130.7054885,33.8799429,-0.021729,-0.059814,0.945312,-1.220703,-1.647949,-3.051758
130.705486,33.87994160000001,-0.086670,-0.094238,1.261475,0.610352,7.934570,1.037598
130.70548349999999,33.879940299999994,0.040527,-0.126465,1.025879,2.014160,-4.211426,4.089355
130.705481,33.879939,0.040527,-0.126465,1.025879,2.014160,-4.211426,4.089355
130.7054796,33.8799382,-0.091797,0.089844,1.175781,-11.718750,5.371094,10.803223
130.7054782,33.879937399999996,-0.087891,0.036621,1.240723,-3.967285,6.774902,14.526367
130.70547679999999,33.87993659999999,-0.006592,0.007568,1.016846,7.873535,-2.624512,14.648438
130.70547539999998,33.87993579999999,0.012695,0.177002,1.075195,4.394531,0.671387,10.009766
130.70547399999998,33.87993499999999,-0.000977,-0.030029,1.013184,-7.629395,5.187988,1.037598
130.7054726,33.87993420000001,0.119141,0.093262,1.000244,2.807617,10.559082,8.300781
130.7054712,33.879933400000006,0.076660,0.115234,1.253418,-2.807617,-11.169434,-7.934570
130.7054698,33.879932600000004,0.076660,0.115234,1.253418,-2.807617,-11.169434,-7.934570
130.7054684,33.8799318,-0.011963,0.079590,1.022949,1.220703,-12.451172,-10.620117
130.705467,33.879931,0.027588,-0.016602,1.143066,-7.019043,-6.225586,-1.953125
130.7054667,33.87993079999999,0.035889,-0.060059,1.148193,6.286621,-7.812500,-2.624512
130.7054664,33.8799306,-0.010254,0.023438,1.041748,4.638672,-9.582520,-2.685547
130.7054661,33.87993039999999,0.079834,0.056885,1.093262,-3.723145,-5.859375,2.868652
130.7054658,33.879930200000004,0.112793,0.062744,1.091553,-5.859375,-1.708984,-2.075195
130.7054655,33.87993,0.112793,0.062744,1.091553,-5.859375,-1.708984,-2.075195
130.7054652,33.87992979999999,0.154785,0.157471,1.142090,-3.173828,-5.615234,-12.329102
130.7054649,33.879929600000004,0.068359,0.189209,1.042480,-3.479004,-2.746582,4.028320
130.7054646,33.879929399999995,0.072266,0.201904,1.073242,0.549316,-1.892090,9.399414
130.70546430000002,33.87992920000001,0.122559,0.175781,1.072998,-2.990723,1.586914,8.544922
130.705464,33.879929,0.144775,0.166504,1.073242,-2.685547,-1.586914,-6.530762
130.7054639,33.8799289,0.028076,0.164062,1.078857,-0.610352,2.441406,-7.324219
130.70546380000002,33.87992880000001,0.039795,0.175049,1.072021,-1.647949,0.183105,-0.061035
130.7054637,33.87992869999999,0.039795,0.175049,1.072021,-1.647949,0.183105,-0.061035
130.7054636,33.87992859999999,0.040771,0.183838,1.081055,-2.685547,-1.586914,2.014160
130.7054635,33.8799285,0.047607,0.170654,1.081299,-1.220703,0.366211,1.342773
130.7054634,33.879928400000004,0.057129,0.170654,1.081299,-2.502441,-2.014160,1.525879
130.70546330000002,33.87992830000001,0.092285,0.170898,1.077148,-2.258301,-0.488281,1.586914
130.7054632,33.87992819999999,0.083008,0.162109,1.076904,-5.126953,-0.488281,-0.976562
130.7054631,33.879928099999994,0.058350,0.177490,1.080811,-0.610352,-0.305176,-2.319336
130.705463,33.879928,0.057373,0.175293,1.073975,-2.502441,-0.427246,0.915527
130.70546290000001,33.879928,0.057373,0.175293,1.073975,-2.502441,-0.427246,0.915527
130.70546280000002,33.879928,0.069580,0.168945,1.079102,-2.319336,-0.854492,0.793457
130.7054627,33.879928,0.059814,0.168457,1.073486,-1.220703,-0.976562,-2.380371
130.7054626,33.879928,0.061035,0.168213,1.074951,-3.967285,-1.708984,-0.732422
130.7054625,33.879928,0.071289,0.167480,1.079102,-1.342773,-1.647949,0.122070
130.70546240000002,33.879928,0.069092,0.178467,1.073486,-1.586914,0.671387,-0.976562
130.70546230000002,33.879928,0.058838,0.170898,1.075928,-3.112793,0.427246,-0.488281
130.7054622,33.879928,0.053711,0.168701,1.076660,-0.488281,-0.427246,0.122070
130.7054621,33.879928,0.053711,0.168701,1.076660,-0.488281,-0.427246,0.122070
130.705462,33.879928,0.069824,0.170654,1.077148,-0.976562,0.549316,0.244141
130.70546190000002,33.879927900000006,0.061523,0.173340,1.078125,-2.380371,-0.549316,-0.915527
130.70546180000002,33.87992780000001,0.060059,0.173828,1.074463,-3.784180,-0.061035,-0.427246
130.7054617,33.87992769999999,0.066162,0.166504,1.079590,-2.075195,0.122070,0.610352
130.7054616,33.879927599999995,0.059326,0.177979,1.075684,-1.953125,0.549316,-2.136230
130.7054615,33.8799275,0.059082,0.169434,1.075684,-1.586914,-0.183105,-0.732422
130.70546140000002,33.87992740000001,0.063965,0.176270,1.076660,-1.342773,-1.892090,-1.708984
130.70546130000002,33.87992730000001,0.063965,0.176270,1.076660,-1.342773,-1.892090,-1.708984
130.7054612,33.87992719999999,0.076416,0.174316,1.077637,-1.464844,-1.525879,-1.342773
130.7054611,33.879927099999996,0.069824,0.176514,1.078857,-2.197266,1.403809,-0.793457
130.705461,33.879927,0.055176,0.166992,1.077393,-3.295898,0.915527,-2.258301
130.70546080000003,33.879927,0.072998,0.177979,1.080566,-2.990723,0.610352,0.122070
130.7054606,33.879927,0.074463,0.169922,1.073486,-2.014160,-0.427246,-0.122070
130.7054604,33.879927,0.061035,0.173828,1.083008,-3.845215,1.281738,-1.403809
130.7054602,33.879927,0.058838,0.175781,1.070312,-1.586914,-0.671387,-1.892090
130.70546000000002,33.879927,0.058838,0.175781,1.070312,-1.586914,-0.671387,-1.892090
130.7054598,33.879927,0.063477,0.171143,1.076660,-1.953125,0.366211,-0.732422
130.70545959999998,33.879927,0.061523,0.178955,1.077637,-2.502441,-0.488281,-2.624512
130.7054594,33.879927,0.064453,0.177246,1.075195,-2.258301,-0.549316,0.183105
130.7054592,33.879927,0.059082,0.176025,1.075195,-2.746582,0.671387,0.488281
130.705459,33.879927,0.066162,0.169189,1.079346,-3.845215,0.793457,-0.122070
130.7054589,33.879927,0.055908,0.177490,1.081543,-1.708984,2.197266,-1.525879
130.7054588,33.879927,0.057129,0.175781,1.077393,-2.746582,0.793457,-0.915527
130.70545869999998,33.879927,0.057129,0.175781,1.077393,-2.746582,0.793457,-0.915527
130.7054586,33.879927,0.057373,0.174316,1.078613,-3.173828,0.793457,-2.746582
130.7054585,33.879927,0.052002,0.161133,1.083252,-1.464844,-0.671387,-2.075195
130.7054584,33.879927,0.057861,0.168457,1.075684,-3.479004,-0.122070,-1.159668
130.7054583,33.879927,0.041016,0.167480,1.078369,-2.258301,1.281738,-1.464844
130.70545819999998,33.879927,0.052490,0.168457,1.081055,-1.770020,0.793457,-1.525879
130.7054581,33.879927,0.044434,0.182129,1.075439,-3.112793,-0.549316,-1.892090
130.705458,33.879927,0.047119,0.173584,1.076172,-1.220703,0.976562,-0.671387
130.7054578,33.879927,0.047119,0.173584,1.076172,-1.220703,0.976562,-0.671387
130.7054576,33.879927,0.053711,0.175537,1.075195,-2.258301,-1.220703,0.061035
130.7054574,33.879927,0.054199,0.171631,1.077148,-1.464844,1.159668,-1.953125
130.70545719999998,33.879927,0.051025,0.172363,1.077393,-2.807617,0.183105,-1.159668
130.705457,33.879927,0.049805,0.172363,1.077148,-2.502441,0.427246,-1.037598
130.7054568,33.879927,0.044434,0.173096,1.077148,-0.488281,1.220703,-1.831055
130.7054566,33.879927,0.050781,0.172607,1.077637,-1.770020,0.366211,-2.563477
130.7054564,33.879927,0.051514,0.165283,1.084229,-1.403809,-0.061035,-0.610352
130.7054562,33.879927,0.051514,0.165283,1.084229,-1.403809,-0.061035,-0.610352
130.705456,33.879927,0.048340,0.169678,1.080322,-1.525879,-0.793457,-0.244141
130.7054558,33.87992690000001,0.053955,0.171143,1.077637,-3.234863,-0.732422,-0.366211
130.7054556,33.8799268,0.045898,0.168945,1.076416,-1.953125,0.305176,-2.014160
130.7054554,33.879926700000006,0.045898,0.171143,1.077637,-3.540039,0.671387,-2.014160
130.7054552,33.8799266,0.048340,0.177246,1.080322,-2.807617,-0.732422,-0.854492
130.705455,33.879926499999996,0.050049,0.168457,1.078857,-1.586914,0.061035,-0.549316
130.7054548,33.8799264,0.043701,0.163574,1.080811,-0.671387,0.366211,-0.671387
130.7054546,33.879926299999994,0.043701,0.163574,1.080811,-0.671387,0.366211,-0.671387
130.7054544,33.8799262,0.049805,0.177246,1.073730,-1.464844,0.000000,0.549316
130.7054542,33.87992609999999,0.052246,0.174072,1.075928,-2.868652,0.000000,0.671387
130.705454,33.879926,0.055176,0.179199,1.074463,-2.136230,0.122070,0.183105
130.70545380000002,33.8799259,0.053467,0.168701,1.078369,-2.624512,-1.464844,-2.380371
130.7054536,33.879925799999995,0.052246,0.168945,1.080322,-1.098633,-1.159668,0.305176
130.7054534,33.8799257,0.055420,0.168457,1.073486,-3.051758,-1.159668,0.000000
130.7054532,33.87992559999999,0.056152,0.174561,1.079102,-1.647949,-1.892090,0.488281
130.705453,33.8799255,0.056152,0.174561,1.079102,-1.647949,-1.892090,0.488281
130.70545280000002,33.879925400000005,0.063965,0.171387,1.074951,-3.234863,-2.929688,-0.244141
130.7054526,33.8799253,0.054688,0.171631,1.069336,-0.854492,1.220703,-0.732422
130.7054524,33.8799252,0.057373,0.167725,1.073975,-2.319336,-0.976562,-1.159668
130.7054522,33.879925099999994,0.055908,0.169434,1.079590,-1.220703,0.915527,-0.671387
130.705452,33.879925,0.063965,0.169678,1.076660,-2.624512,-1.342773,-0.244141
130.7054519,33.879925,0.065186,0.170898,1.083984,-1.586914,-0.976562,-0.854492
130.70545180000002,33.879925,0.059570,0.176025,1.076416,-1.586914,-0.976562,-0.854492
130.7054517,33.879925,0.059570,0.176025,1.076416,-2.136230,0.732422,0.244141
130.7054516,33.879925,0.062500,0.169189,1.074219,-3.173828,0.061035,-2.441406
130.7054515,33.879925,0.052734,0.173340,1.078125,-2.380371,-0.244141,-0.305176
130.70545140000002,33.879925,0.063721,0.168457,1.081787,-2.258301,0.427246,-0.671387
130.70545130000002,33.879925,0.052246,0.172852,1.076904,-2.380371,0.732422,-1.831055
130.7054512,33.879925,0.054932,0.170898,1.079834,-4.333496,-0.244141,0.976562
130.7054511,33.879925,0.050537,0.176514,1.076904,-0.793457,1.159668,-0.732422
130.705451,33.879925,0.050537,0.176514,1.076904,-0.793457,1.159668,-0.732422
130.7054508,33.879925,0.054688,0.169434,1.080322,-1.708984,2.014160,-2.075195
130.7054506,33.879925,0.051025,0.175293,1.082275,-4.577637,-0.549316,-0.732422
130.70545040000002,33.879925,0.053955,0.175049,1.079346,-3.601074,-0.793457,-2.380371
130.7054502,33.879925,0.054443,0.176758,1.074951,-1.892090,-0.305176,0.244141
130.70544999999998,33.879925,0.047363,0.173340,1.075684,-2.441406,-0.427246,-2.014160
130.7054498,33.879925,0.053223,0.166992,1.079102,-3.356934,0.183105,-0.244141
130.7054496,33.879925,0.053223,0.168457,1.084473,-2.380371,-0.183105,-0.610352
130.7054494,33.879925,0.053223,0.168457,1.084473,-2.380371,-0.183105,-0.610352
130.70544919999998,33.879925,0.052002,0.162598,1.077637,-1.647949,0.366211,-0.244141
130.705449,33.879925,0.050781,0.174805,1.076660,-3.845215,0.061035,0.000000
130.7054489,33.879925,0.050781,0.174316,1.074219,-3.662109,-1.281738,0.366211
130.7054488,33.879925,0.050537,0.167236,1.078857,-2.563477,0.366211,-0.610352
130.70544869999998,33.879925,0.050537,0.167236,1.077881,-2.929688,-1.831055,0.793457
130.70544859999998,33.879925,0.047852,0.173340,1.081543,-1.525879,-0.671387,-1.159668
130.7054485,33.879925,0.049072,0.167236,1.079834,-2.258301,-0.610352,-1.403809
130.7054484,33.879925,0.049072,0.167236,1.079834,-2.258301,-0.610352,-1.403809
130.7054483,33.879925,0.045166,0.175049,1.080078,0.793457,1.953125,0.793457
130.70544819999998,33.879925,0.052979,0.167236,1.076660,-4.333496,0.366211,-0.366211
130.70544809999998,33.879925,0.049316,0.170166,1.079102,-3.662109,-0.366211,-0.915527
130.705448,33.879925,0.048828,0.169678,1.078369,-0.854492,-1.647949,0.305176
130.7054478,33.879925,0.053223,0.180908,1.076660,-2.746582,-1.770020,-1.342773
130.70544759999999,33.879925,0.044678,0.174072,1.079590,-3.051758,-0.793457,-1.770020
130.7054474,33.879925,0.054688,0.169189,1.074707,-3.051758,-0.793457,-1.770020
130.70544719999998,33.879925,0.054688,0.169189,1.074707,-1.525879,-0.366211,-2.624512
130.705447,33.879925,0.051758,0.167725,1.082764,-1.586914,-0.915527,-0.427246
130.7054468,33.879925,0.053955,0.170410,1.079346,-5.004883,-0.915527,0.366211
130.7054466,33.879925,0.048340,0.172363,1.080078,-2.624512,-0.488281,-0.366211
130.7054464,33.879925,0.046631,0.175293,1.072266,-1.464844,-0.427246,0.915527
130.70544619999998,33.879925,0.049805,0.178223,1.076172,-4.089355,0.000000,-0.488281
130.705446,33.879925,0.053223,0.173584,1.082764,-2.746582,-0.244141,-0.915527
130.7054459,33.879925,0.053223,0.173584,1.082764,-2.746582,-0.244141,-0.915527
130.7054458,33.879925,0.050781,0.174072,1.076904,-1.770020,-0.061035,-0.183105
130.70544569999998,33.879925,0.048340,0.174316,1.078369,-2.380371,-0.183105,-0.915527
130.7054456,33.879925,0.041748,0.175537,1.077881,-2.746582,0.061035,0.610352
130.7054455,33.879925,0.054443,0.173096,1.084473,-2.624512,0.671387,0.244141
130.7054454,33.879925,0.049805,0.172363,1.073730,-2.868652,-1.037598,-1.159668
130.7054453,33.879925,0.046143,0.174805,1.081787,-1.708984,0.732422,-1.831055
130.70544519999999,33.879925,0.047852,0.176514,1.083008,-2.136230,-0.244141,-0.183105
130.7054451,33.879925,0.047852,0.176514,1.083008,-2.136230,-0.244141,-0.183105
130.705445,33.879925,0.051758,0.176270,1.075684,-2.502441,-0.793457,-0.061035
130.7054449,33.879924900000006,0.046875,0.171875,1.069824,-2.258301,-1.586914,-1.708984
130.7054448,33.87992480000001,0.042725,0.169922,1.079834,-1.281738,-0.244141,-0.793457
130.7054447,33.87992469999999,0.048340,0.171143,1.081543,-3.173828,0.000000,-0.671387
130.7054446,33.879924599999995,0.042236,0.174072,1.078369,-2.624512,0.061035,0.427246
130.7054445,33.8799245,0.042480,0.172607,1.077881,-2.136230,-0.671387,-0.183105
130.7054444,33.87992440000001,0.046387,0.167969,1.078369,-2.319336,0.000000,-0.549316
130.7054443,33.87992430000001,0.046387,0.167969,1.078369,-2.319336,0.000000,-0.549316
130.7054442,33.87992419999999,0.053711,0.169678,1.081543,-0.366211,-0.305176,-0.671387
130.7054441,33.8799241,0.046631,0.170410,1.079590,-1.220703,-1.586914,-0.671387
130.705444,33.879924,0.042725,0.173828,1.076172,-1.403809,0.793457,-0.305176
130.7054438,33.879924,0.049316,0.170410,1.081543,-1.647949,0.366211,-2.136230
130.7054436,33.879924,0.047607,0.167725,1.076660,-0.915527,0.610352,0.549316
130.7054434,33.879924,0.041992,0.173340,1.080078,-1.586914,-0.488281,-1.098633
130.7054432,33.879924,0.048096,0.165771,1.079346,0.244141,-0.244141,0.549316
130.705443,33.879924,0.048096,0.165771,1.079346,0.244141,-0.244141,0.549316
130.70544280000001,33.879924,0.045410,0.172852,1.071045,-2.197266,-0.122070,-2.319336
130.7054426,33.879924,0.048828,0.167969,1.083496,-2.441406,0.122070,0.549316
130.7054424,33.879924,0.057861,0.172119,1.082764,-2.136230,0.305176,0.183105
130.7054422,33.879924,0.034912,0.162354,1.075439,-1.831055,0.732422,-2.197266
130.705442,33.879924,0.037842,0.180664,1.075439,-4.028320,-1.159668,0.610352
130.7054419,33.879924,0.043701,0.179443,1.072510,-1.892090,-0.122070,-1.281738
130.70544180000002,33.879924,0.041016,0.166992,1.079346,-2.197266,0.061035,-0.671387
130.7054417,33.879924,0.041016,0.166992,1.079346,-2.197266,0.061035,-0.671387
130.7054416,33.879924,0.047119,0.156738,1.083008,-0.671387,-1.281738,-1.342773
130.7054415,33.879924,0.041016,0.173340,1.082275,-1.770020,-1.342773,0.244141
130.7054414,33.879924,0.052490,0.178955,1.080322,-1.831055,0.244141,-1.159668
130.70544130000002,33.879924,0.048096,0.165527,1.076904,-1.220703,0.122070,-1.281738
130.7054412,33.879924,0.050293,0.172852,1.076904,-0.549316,1.281738,-2.319336
130.7054411,33.879924,0.036133,0.169922,1.084229,-1.220703,0.671387,-0.122070
130.705441,33.879924,0.034912,0.166016,1.076416,-3.356934,-0.854492,1.037598
130.7054409,33.879924,0.034912,0.166016,1.076416,-3.356934,-0.854492,1.037598
130.70544080000002,33.879924,0.049316,0.178223,1.072754,-1.098633,-0.915527,0.122070
130.7054407,33.879924,0.041016,0.171875,1.081299,-1.831055,-0.122070,-0.976562
130.7054406,33.879924,0.056152,0.168457,1.085449,-3.173828,-0.671387,0.549316
130.7054405,33.879924,0.036621,0.172852,1.074219,-2.075195,1.953125,-1.342773
130.70544040000001,33.879924,0.037842,0.165527,1.085938,-4.455566,-0.793457,0.122070
130.70544030000002,33.879924,0.039795,0.167725,1.075684,-0.183105,0.122070,-0.244141
130.7054402,33.879924,0.038330,0.174561,1.081055,-2.258301,0.976562,-1.647949
130.7054401,33.879924,0.038330,0.174561,1.081055,-2.258301,0.976562,-1.647949
130.70544,33.879924,0.023926,0.178467,1.079102,-2.807617,-0.122070,-1.770020
130.70543990000002,33.879924,0.028320,0.176025,1.078369,-1.037598,-0.244141,-0.183105
130.70543980000002,33.879924,0.039795,0.174072,1.080566,-1.831055,0.610352,2.380371
130.7054397,33.879924,0.045898,0.151367,1.079590,0.122070,-2.258301,-1.708984
130.7054396,33.879924,0.012207,0.166748,1.080811,-1.586914,-1.281738,1.586914
130.7054395,33.879924,0.056641,0.188477,1.095703,-0.793457,-1.525879,-1.281738
130.70543940000002,33.879924,0.059570,0.168213,1.084473,-0.671387,-1.892090,-3.051758
130.70543930000002,33.879924,0.059570,0.168213,1.084473,-0.671387,-1.892090,-3.051758
130.7054392,33.879924,0.047607,0.166260,1.088623,-0.671387,0.061035,-0.305176
130.7054391,33.879924,0.042725,0.179932,1.080566,-1.770020,-1.831055,-0.305176
130.705439,33.879924,0.025879,0.165771,1.079102,-2.807617,1.342773,0.061035
130.70543890000002,33.879924,0.040283,0.170410,1.079102,-2.014160,0.793457,-0.610352
130.7054388,33.879924,0.032471,0.169434,1.080566,-0.610352,-0.122070,-1.098633
130.7054387,33.879924,0.039062,0.167236,1.080566,-3.295898,0.549316,-1.525879
130.7054386,33.879924,0.036377,0.170654,1.079590,-3.723145,-1.464844,0.610352
130.7054385,33.879924,0.036377,0.170654,1.079590,-3.723145,-1.464844,0.610352
130.7054384,33.879924,0.050781,0.159912,1.085449,-0.915527,-0.244141,1.464844
130.7054383,33.879924,0.054688,0.182129,1.084717,-3.662109,0.183105,-0.793457
130.7054382,33.879924,0.040527,0.159912,1.090576,-1.647949,-1.953125,-0.061035
130.70543809999998,33.879924,0.062012,0.168457,1.075928,-0.976562,-1.281738,-1.892090
130.705438,33.879924,0.038574,0.165039,1.088379,-3.906250,0.183105,-0.366211
130.7054379,33.879924,0.020508,0.176514,1.081299,-4.577637,1.586914,-4.394531
130.7054378,33.879924,0.023926,0.162354,1.074951,-0.793457,0.610352,-0.427246
130.70543769999998,33.879924,0.023926,0.162354,1.074951,-0.793457,0.610352,-0.427246
130.70543759999998,33.879924,0.037109,0.165527,1.074951,-1.281738,-1.342773,3.356934
130.7054375,33.879924,0.060547,0.168701,1.082031,-2.014160,-2.136230,1.220703
130.7054374,33.879924,0.046387,0.187500,1.076904,-2.075195,0.427246,0.915527
130.7054373,33.879924,0.059326,0.174561,1.081787,-4.577637,-2.441406,-2.502441
130.70543719999998,33.879924,0.028076,0.176270,1.083496,-3.295898,-0.305176,-2.563477
130.70543709999998,33.879924,0.031494,0.170654,1.077148,-1.892090,0.061035,0.976562
130.705437,33.879924,0.031494,0.170654,1.077148,-1.892090,0.061035,0.976562
130.70543694999998,33.87992394999999,0.040527,0.165039,1.078613,-3.356934,-0.122070,1.098633
130.7054369,33.87992390000001,0.046143,0.167969,1.076172,-1.159668,0.366211,-1.770020
130.70543684999998,33.87992385,0.039307,0.174805,1.077148,-2.319336,0.549316,-2.380371
130.7054368,33.879923800000014,0.035645,0.166504,1.077393,-1.525879,-0.061035,-0.305176
130.70543675,33.87992375,0.031982,0.167725,1.078125,-2.929688,0.427246,-0.244141
130.70543669999998,33.87992369999999,0.033936,0.177979,1.047119,-1.403809,-2.258301,0.671387
130.70543665,33.87992365000001,0.000000,0.178711,1.053467,-2.136230,-1.770020,-1.098633
130.70543659999998,33.8799236,0.000000,0.178711,1.053467,-2.136230,-1.770020,-1.098633
130.70543655,33.879923550000015,0.029785,0.168945,1.067383,-3.295898,0.427246,0.366211
130.7054365,33.879923500000004,0.034180,0.174072,1.074707,-0.488281,2.258301,-0.122070
130.70543644999998,33.879923449999986,0.031738,0.172119,1.081055,-3.601074,0.732422,-1.586914
130.7054364,33.8799234,0.028564,0.166992,1.080078,-1.892090,-0.427246,0.122070
130.70543634999999,33.87992334999999,0.032715,0.170410,1.082520,-2.075195,0.305176,-0.915527
130.7054363,33.87992330000001,0.036133,0.173340,1.083984,-2.014160,0.549316,-2.563477
130.70543625,33.87992325,0.020752,0.168213,1.084961,-2.624512,0.061035,-0.244141
130.70543619999998,33.879923199999986,0.020752,0.168213,1.084961,-2.624512,0.061035,-0.244141
130.70543615,33.87992315,0.055176,0.152344,1.076904,-1.708984,-3.967285,1.159668
130.7054361,33.87992309999999,0.023193,0.168945,1.037354,0.488281,-2.441406,2.441406
130.70543605,33.87992305000001,0.020508,0.167725,1.093262,-3.601074,-0.061035,-2.746582
130.705436,33.879923,0.053467,0.160156,1.091553,-3.112793,-1.281738,-0.976562
130.70543594999998,33.879923,0.107178,0.178467,1.076416,-1.037598,-1.770020,-4.272461
130.7054359,33.879923,0.047119,0.175781,1.091553,-2.319336,-2.319336,1.403809
130.70543585,33.879923,0.048828,0.166992,1.080811,-0.732422,-1.281738,1.281738
130.7054358,33.879923,0.048828,0.166992,1.080811,-0.732422,-1.281738,1.281738
130.70543575,33.879923,0.078613,0.163086,1.080566,-0.305176,-0.976562,1.037598
130.70543569999998,33.879923,0.058105,0.174805,1.087646,-1.220703,-0.793457,-0.305176
130.70543565,33.879923,0.027344,0.180176,1.071045,-3.723145,-1.831055,2.380371
130.7054356,33.879923,0.060303,0.160400,1.081055,-3.417969,-1.464844,-0.610352
130.70543555,33.879923,0.052979,0.166992,1.079346,-1.892090,-2.441406,1.037598
130.7054355,33.879923,0.070557,0.169678,1.076904,-1.708984,-2.990723,6.286621
130.70543544999998,33.879923,0.097900,0.177002,1.076416,-0.610352,-0.610352,1.159668
130.7054354,33.879923,0.097900,0.177002,1.076416,-0.610352,-0.610352,1.159668
130.70543535,33.879923,0.098389,0.156250,1.073975,-2.319336,1.220703,-0.061035
130.7054353,33.879923,0.515869,0.166504,1.386475,-1.953125,-76.599121,16.235352
130.70543525,33.879923,-0.096436,0.170410,0.977295,-0.305176,8.239746,-6.958008
130.70543519999998,33.879923,-0.013916,0.243652,1.129639,-4.516602,30.090332,-9.094238
130.70543515,33.879923,0.076172,0.190186,1.052979,-2.197266,10.986328,-4.150391
130.7054351,33.879923,0.097656,0.171387,1.117676,-2.746582,2.197266,-2.624512
130.70543505,33.879923,0.023926,0.173340,1.125244,-2.380371,0.732422,2.502441
130.705435,33.879923,0.023926,0.173340,1.125244,-2.380371,0.732422,2.502441
130.70543494999998,33.87992294999999,0.027100,0.173584,1.080078,-1.403809,1.770020,-0.366211
130.7054349,33.879922900000004,0.009277,0.168945,1.078125,-1.281738,3.112793,-1.647949
130.70543485,33.87992284999999,0.042480,0.182373,1.073242,-1.892090,2.685547,-3.295898
130.7054348,33.87992280000001,0.036377,0.176758,1.078369,-1.220703,3.845215,3.662109
130.70543475,33.87992275,0.055176,0.169678,1.077881,-1.708984,3.295898,-2.807617
130.70543469999998,33.87992269999999,-0.009766,0.181396,1.078369,-3.051758,3.845215,-6.896973
130.70543465,33.879922650000005,-0.007812,0.187012,1.076904,-3.540039,3.723145,-3.295898
130.7054346,33.87992259999999,-0.007812,0.187012,1.076904,-3.540039,3.723145,-3.295898
130.70543455,33.87992255000001,-0.019531,0.170654,1.087402,-1.647949,1.892090,-1.892090
130.7054345,33.8799225,0.012695,0.177002,1.084717,-3.356934,1.953125,3.295898
130.70543444999998,33.87992244999999,0.006836,0.177734,1.084229,-2.014160,0.610352,-3.295898
130.7054344,33.879922400000005,0.020508,0.176514,1.082031,-2.990723,1.403809,-1.098633
130.70543435,33.879922349999994,0.027344,0.176514,1.079346,-1.831055,-0.610352,-2.929688
130.7054343,33.87992230000001,-0.046387,0.177490,1.068604,-4.577637,1.953125,-9.094238
130.70543425,33.87992225,-0.059326,0.166748,1.083984,-3.479004,-4.516602,2.258301
130.70543419999998,33.87992219999999,-0.059326,0.166748,1.083984,-3.479004,-4.516602,2.258301
130.70543415,33.879922150000006,0.048828,0.181885,1.078369,-1.281738,-5.310059,11.413574
130.7054341,33.879922099999995,0.054199,0.182373,1.080566,-1.831055,-2.868652,-3.112793
130.70543405,33.87992205000001,0.021240,0.170654,1.078125,-3.112793,-0.671387,-0.427246
130.705434,33.879922,0.034912,0.178467,1.080078,-2.258301,-1.403809,2.014160
130.705434,33.8799219,0.013916,0.171387,1.078369,-1.464844,-0.915527,-0.976562
130.705434,33.8799218,0.019043,0.180908,1.080566,-0.854492,-0.610352,-1.525879
130.705434,33.879921700000004,0.019043,0.180908,1.080566,-0.854492,-0.610352,-1.525879
130.705434,33.8799216,0.021484,0.182861,1.080566,-2.319336,-0.732422,1.647949
130.705434,33.8799215,0.044434,0.182861,1.073242,-0.244141,-0.549316,2.624512
130.705434,33.8799214,0.034912,0.167725,1.079834,-4.089355,0.183105,0.976562
130.705434,33.8799213,0.039062,0.162842,1.062744,-2.075195,-0.122070,0.122070
130.705434,33.879921200000005,0.020996,0.157715,1.081543,-3.906250,1.220703,-0.305176
130.705434,33.879921100000004,0.030273,0.164795,1.088135,-0.244141,-0.366211,-1.159668
130.705434,33.879921,0.041992,0.179688,1.077637,-2.563477,-1.037598,-2.807617
130.705434,33.8799209,0.041992,0.179688,1.077637,-2.563477,-1.037598,-2.807617
130.705434,33.8799208,0.019287,0.176514,1.083252,-1.647949,-0.915527,0.305176
130.705434,33.8799207,0.036621,0.180420,1.072998,-2.990723,-1.037598,-1.342773
130.705434,33.8799206,0.067383,0.170898,1.092041,-3.051758,-1.892090,-0.976562
130.705434,33.8799205,0.020752,0.179932,1.103516,-1.342773,-3.723145,1.220703
130.705434,33.8799204,0.049561,0.175537,1.071533,-3.662109,1.708984,-1.892090
130.705434,33.8799203,0.039795,0.166260,1.095459,-2.136230,0.183105,-2.380371
130.705434,33.8799202,0.022949,0.165527,1.070801,-1.892090,-0.122070,0.915527
130.705434,33.8799201,0.022949,0.165527,1.070801,-1.892090,-0.122070,0.915527
130.705434,33.87992,0.042236,0.172363,1.076904,-1.708984,-0.915527,-0.732422
130.7054339,33.879919900000004,0.039062,0.176514,1.077148,-3.234863,-1.342773,-0.122070
130.7054338,33.87991980000001,0.028320,0.176514,1.079834,-2.319336,0.732422,-0.244141
130.7054337,33.87991969999999,0.035400,0.176270,1.069580,-2.868652,0.915527,-1.281738
130.7054336,33.879919599999994,0.031982,0.174561,1.069824,-2.014160,0.000000,-1.403809
130.7054335,33.8799195,0.037109,0.175781,1.079834,-2.807617,1.098633,0.671387
130.7054334,33.879919400000006,0.047607,0.179688,1.086426,-3.112793,-0.549316,-0.671387
130.7054333,33.87991930000001,0.047607,0.179688,1.086426,-3.112793,-0.549316,-0.671387
130.7054332,33.87991919999999,0.050781,0.176270,1.078857,-1.525879,-0.061035,-1.342773
130.7054331,33.879919099999995,0.032715,0.169922,1.080078,-3.051758,1.037598,-2.197266
130.705433,33.879919,0.034180,0.180908,1.078125,-1.647949,0.000000,-1.403809
130.7054331,33.87991880000001,0.102783,0.127686,0.971924,-2.563477,1.831055,1.770020
130.7054332,33.879918600000025,0.007324,0.186768,1.052734,-3.906250,-1.098633,-2.258301
130.7054333,33.87991839999998,0.019531,0.174316,1.059326,-1.831055,1.403809,-2.136230
130.7054334,33.87991819999999,0.059326,0.194092,1.061768,-0.793457,-2.258301,-3.051758
130.7054335,33.879918,0.059326,0.194092,1.061768,-0.793457,-2.258301,-3.051758
130.7054336,33.87991780000001,0.038086,0.163330,1.091309,-3.479004,-1.647949,-0.915527
130.7054337,33.87991760000002,0.011963,0.207031,1.031982,-3.173828,2.136230,-0.122070
130.7054338,33.879917399999975,0.080322,0.195557,1.083252,-1.281738,2.258301,-1.037598
130.7054339,33.87991719999999,0.062500,0.168457,1.074707,-1.892090,-1.403809,1.220703
130.705434,33.879917,0.055420,0.172363,1.074951,-2.563477,-4.272461,-3.845215
130.7054339,33.879916900000005,0.039062,0.179688,1.093750,-2.502441,-3.906250,-0.427246
130.7054338,33.87991680000001,0.022949,0.172852,1.065918,-2.746582,2.380371,0.488281
130.7054337,33.87991669999999,0.022949,0.172852,1.065918,-2.746582,2.380371,0.488281
130.7054336,33.879916599999994,0.053467,0.168213,1.084229,-1.159668,3.417969,-1.220703
130.7054335,33.8799165,0.064453,0.178711,1.079834,-2.502441,1.098633,0.244141
130.7054334,33.879916400000006,0.071289,0.193359,1.064453,-2.746582,-2.319336,-1.037598
130.7054333,33.87991630000001,0.005127,0.173096,1.072998,-5.065918,-3.356934,-0.061035
130.7054332,33.87991619999999,-0.011475,0.227295,1.179199,-1.953125,-1.098633,0.000000
130.7054331,33.879916099999996,0.046143,0.184326,1.072510,-1.892090,-2.197266,-0.671387
130.705433,33.879916,0.025391,0.171143,1.070801,-2.563477,0.305176,1.098633
130.705433,33.8799159,0.025391,0.171143,1.070801,-2.563477,0.305176,1.098633
130.705433,33.8799158,-0.022217,0.175537,1.057617,-4.699707,1.037598,-4.211426
130.705433,33.8799157,0.026367,0.174561,1.070557,-2.075195,0.183105,-0.183105
130.705433,33.8799156,0.060303,0.172852,1.075684,-3.173828,-0.854492,0.427246
130.705433,33.879915499999996,0.073975,0.170654,1.052734,0.610352,-0.488281,0.610352
130.705433,33.8799154,0.033447,0.170898,1.058594,-1.037598,-5.004883,1.403809
130.705433,33.8799153,0.032959,0.156250,1.088379,-6.164551,-0.610352,-1.831055
130.705433,33.8799152,0.007568,0.162598,1.066162,-4.821777,0.793457,-4.516602
130.705433,33.8799151,0.007568,0.162598,1.066162,-4.821777,0.793457,-4.516602
130.705433,33.879915,0.039795,0.189697,1.070312,-2.746582,0.793457,-0.061035
130.7054331,33.8799149,0.068359,0.172852,1.077393,-3.417969,-3.417969,-0.976562
130.7054332,33.87991480000001,0.068604,0.174316,1.078369,-2.563477,-0.366211,0.000000
130.7054333,33.879914699999986,0.053955,0.176025,1.071289,-3.601074,-3.479004,-0.671387
130.7054334,33.87991459999999,0.023926,0.174072,1.061523,-2.624512,-1.220703,1.098633
130.7054335,33.8799145,0.048828,0.177490,1.074707,-3.295898,0.427246,-1.098633
130.7054336,33.879914400000004,0.050293,0.173096,1.080078,-3.417969,-1.037598,-0.854492
130.7054337,33.87991430000001,0.050293,0.173096,1.080078,-3.417969,-1.037598,-0.854492
130.7054338,33.87991419999999,0.043213,0.165527,1.085938,-2.014160,-0.122070,-0.305176
130.7054339,33.87991409999999,0.041260,0.184082,1.072021,-2.441406,0.610352,0.610352
130.705434,33.879914,0.043945,0.198975,1.096436,-4.089355,-1.281738,1.037598
130.705434,33.8799139,0.041748,0.173096,1.080078,-2.075195,-2.624512,-0.305176
130.705434,33.8799138,0.036621,0.176758,1.071777,0.610352,-0.549316,0.183105
130.705434,33.8799137,0.048828,0.172607,1.084717,-3.051758,-0.122070,-2.136230
130.705434,33.8799136,0.050293,0.169922,1.078613,-3.723145,0.549316,-0.061035
130.705434,33.8799135,0.050293,0.169922,1.078613,-3.723145,0.549316,-0.061035
130.705434,33.8799134,0.032471,0.171631,1.083008,-2.624512,-0.671387,-2.136230
130.705434,33.8799133,0.042480,0.179688,1.072754,-1.586914,-0.305176,0.122070
130.705434,33.879913200000004,0.046387,0.176758,1.079346,-1.831055,-1.098633,-0.488281
130.705434,33.8799131,0.049072,0.173584,1.078613,-1.281738,-0.854492,-1.098633
130.705434,33.879913,0.037842,0.177734,1.086670,-2.075195,0.244141,-2.258301
130.705434,33.8799129,0.040283,0.172607,1.074707,-1.464844,-0.610352,-1.892090
130.705434,33.8799128,0.038574,0.181396,1.078125,-3.051758,-1.464844,-1.098633
130.705434,33.8799127,0.038574,0.181396,1.078125,-3.051758,-1.464844,-1.098633
130.705434,33.8799126,0.026611,0.172363,1.078613,-2.075195,-0.122070,-0.122070
130.705434,33.8799125,0.038818,0.179443,1.069824,-1.220703,0.183105,-1.525879
130.705434,33.8799124,0.045898,0.174561,1.081055,-0.427246,1.770020,-0.854492
130.705434,33.8799123,0.043701,0.173828,1.079102,-1.586914,-0.488281,0.671387
130.705434,33.8799122,0.050293,0.180908,1.076660,-3.417969,-2.136230,0.061035
130.705434,33.8799121,0.033936,0.175049,1.079834,-2.136230,0.549316,-2.197266
130.705434,33.879912,0.033936,0.175049,1.079834,-2.136230,0.549316,-2.197266
130.7054341,33.8799119,0.050781,0.172119,1.080322,-1.464844,0.793457,-0.061035
130.70543419999998,33.87991180000001,0.051514,0.174805,1.075195,-3.784180,-0.549316,-1.037598
130.7054343,33.87991169999999,0.048096,0.182129,1.077148,0.183105,1.770020,0.305176
130.7054344,33.87991159999999,0.045654,0.174805,1.081787,-2.075195,-0.244141,-0.183105
130.7054345,33.8799115,0.048828,0.177246,1.077393,-3.295898,-1.770020,-0.610352
130.7054346,33.879911400000005,0.035400,0.175781,1.081055,-3.234863,-2.014160,-1.953125
130.70543469999998,33.87991130000001,0.043945,0.177734,1.070557,-1.586914,-0.366211,-0.305176
130.7054348,33.87991119999999,0.043945,0.177734,1.070557,-1.586914,-0.366211,-0.305176
130.7054349,33.879911099999994,0.036133,0.175293,1.082275,-2.136230,0.976562,-2.014160
130.705435,33.879911,0.043457,0.168457,1.081787,-1.159668,0.610352,0.061035
130.705435,33.8799109,0.046875,0.176514,1.077148,-3.662109,-2.075195,-2.197266
130.705435,33.8799108,0.040283,0.170166,1.077148,-2.807617,-0.854492,-1.220703
130.705435,33.8799107,0.036621,0.171875,1.078369,-3.845215,-0.854492,-0.854492
130.705435,33.8799106,0.040771,0.168701,1.077881,-1.647949,-1.098633,0.000000
130.705435,33.8799105,0.039551,0.179688,1.074463,-1.770020,-0.427246,-0.183105
130.705435,33.8799104,0.039551,0.179688,1.074463,-1.770020,-0.427246,-0.183105
130.705435,33.8799103,0.040771,0.171631,1.078125,-2.990723,-1.281738,-0.732422
130.705435,33.879910200000005,0.046143,0.172607,1.079590,-3.723145,0.427246,-0.122070
130.705435,33.879910100000004,0.049805,0.169189,1.075928,-4.333496,-2.075195,0.488281
130.705435,33.87991,0.047119,0.177490,1.082031,-3.112793,0.671387,-1.098633
130.7054349,33.87991,0.033447,0.178223,1.075439,-0.976562,0.183105,-1.464844
130.7054348,33.87991,0.039307,0.170410,1.078613,-4.028320,-0.122070,-0.305176
130.70543469999998,33.87991,0.044434,0.170654,1.083252,-2.563477,0.610352,-0.671387
130.7054346,33.87991,0.044434,0.170654,1.083252,-2.563477,0.610352,-0.671387
130.7054345,33.87991,0.039551,0.176025,1.075928,-1.953125,-1.037598,-0.610352
130.7054344,33.87991,0.038818,0.168213,1.084229,-1.220703,-0.915527,-2.014160
130.7054343,33.87991,0.042969,0.173828,1.076660,-2.258301,-0.122070,-0.244141
130.70543419999998,33.87991,0.041992,0.167236,1.075928,-0.854492,1.159668,-0.244141
130.7054341,33.87991,0.041260,0.177979,1.080078,0.183105,-1.647949,-1.525879
130.705434,33.87991,0.052246,0.176758,1.072754,-0.610352,-1.525879,1.098633
130.7054339,33.87990990000001,0.044678,0.155518,1.069092,-0.793457,0.610352,-1.831055
130.7054338,33.879909800000014,0.044678,0.155518,1.069092,-0.793457,0.610352,-1.831055
130.7054337,33.87990969999999,0.015869,0.134277,1.092285,-1.037598,-4.028320,6.591797
130.7054336,33.8799096,0.080811,0.187500,1.076660,3.967285,-2.807617,2.563477
130.7054335,33.8799095,-0.110107,0.281494,1.085693,0.732422,2.075195,-12.634277
130.7054334,33.8799094,-0.052002,0.236084,1.103760,-5.126953,16.723633,-9.765625
130.7054333,33.87990930000001,0.158691,0.373535,1.050781,-4.882812,11.474609,-7.812500
130.7054332,33.879909199999986,0.042969,0.356201,1.018311,-4.516602,4.211426,-20.202637
130.7054331,33.87990909999999,0.071045,0.347900,1.060059,-6.896973,5.249023,-22.888184
130.705433,33.879909,0.071045,0.347900,1.060059,-6.896973,5.249023,-22.888184
130.705432,33.8799084,0.000977,0.401855,1.003906,5.187988,-3.051758,-15.686035
130.705431,33.8799078,-0.002197,0.259277,1.299072,-0.671387,-2.014160,13.061523
130.70543,33.879907200000005,0.075928,0.332031,1.273682,-4.821777,-11.474609,34.118652
130.705429,33.879906600000005,0.164062,0.189453,0.707031,16.296387,-14.343262,23.925781
130.70542799999998,33.87990599999999,-0.093750,0.583740,1.123047,-0.244141,17.822266,-14.892578
130.705427,33.87990539999999,0.073486,0.481201,0.717041,0.976562,-11.291504,-6.225586
130.705426,33.87990479999999,-0.180664,0.437988,1.176270,-16.967773,15.502930,13.305664
130.705425,33.8799042,-0.180664,0.437988,1.176270,-16.967773,15.502930,13.305664
130.705424,33.8799036,-0.269287,0.330322,0.904053,-25.207520,5.126953,13.793945
130.705423,33.879903,0.136230,0.231934,1.868408,44.555664,-25.451660,5.065918
130.7054216,33.87990189999999,0.082520,-0.123779,0.739258,-37.475586,-16.479492,0.793457
130.7054202,33.879900799999994,0.008301,0.571045,0.931885,46.081543,-15.502930,0.732422
130.7054188,33.87989969999999,-0.094238,0.232422,1.154297,4.272461,-13.488770,25.329590
130.7054174,33.87989859999999,0.055908,0.187988,0.926270,17.333984,-16.235352,23.742676
130.705416,33.87989750000001,-0.044434,-0.251221,1.088867,-91.796875,116.088867,3.479004
130.7054146,33.87989640000001,-0.044434,-0.251221,1.088867,-91.796875,116.088867,3.479004
130.7054132,33.87989530000001,-0.208008,0.326416,0.797852,62.561035,25.512695,-0.183105
130.7054118,33.8798942,0.128662,0.238525,0.956299,-26.672363,-18.676758,17.578125
130.7054104,33.879893100000004,0.003418,0.400146,0.937256,-3.356934,-4.028320,10.070801
130.705409,33.879892,-0.011475,0.097412,1.050049,-1.770020,12.329102,-11.901855
130.705407,33.8798908,-0.008789,0.125000,0.922852,8.178711,5.004883,-6.835938
130.705405,33.879889600000006,-0.033203,0.131104,1.244385,-25.756836,14.953613,6.896973
130.705403,33.87988839999999,-0.033203,0.131104,1.244385,-25.756836,14.953613,6.896973
130.705401,33.8798872,0.093262,0.191406,0.986572,4.089355,1.770020,-2.075195
130.705399,33.879886,0.167969,0.293945,1.291260,2.868652,33.630371,-41.137695
130.705397,33.8798848,0.037354,0.149658,1.117432,-11.047363,9.826660,-36.621094
130.705395,33.87988360000001,-0.059570,0.377197,0.970459,7.568359,-16.418457,-35.095215
130.705393,33.87988239999999,-0.071045,0.278564,0.993408,28.503418,-10.070801,-30.395508
130.705391,33.8798812,-0.000244,0.202881,1.258301,-10.131836,-15.380859,-13.977051
130.705389,33.87988,-0.056641,0.220215,1.099609,1.037598,-9.399414,4.821777
130.7053867,33.8798788,-0.056641,0.220215,1.099609,1.037598,-9.399414,4.821777
130.70538439999999,33.87987759999999,-0.117432,0.414062,1.326904,20.080566,-9.216309,-4.760742
130.7053821,33.87987640000001,0.003906,0.161133,1.147705,12.817383,-20.507812,7.263184
130.7053798,33.8798752,-0.011475,0.323486,1.052490,1.953125,-10.742188,9.033203
130.7053775,33.879874,-0.033691,0.076660,0.993896,-11.352539,-1.953125,17.211914
130.7053752,33.8798728,0.025391,0.276611,1.299805,-6.042480,1.037598,7.690430
130.7053729,33.879871599999994,-0.118408,0.062744,0.802734,5.676270,3.479004,-6.713867
130.7053706,33.87987040000001,-0.020020,0.102051,1.021973,-4.699707,9.826660,-15.563965
130.7053683,33.8798692,-0.020020,0.102051,1.021973,-4.699707,9.826660,-15.563965
130.705366,33.879868,0.018799,0.046631,1.055420,-0.549316,-0.549316,-10.803223
130.7053636,33.8798665,-0.106689,0.280518,0.795410,2.380371,-9.582520,-12.634277
130.7053612,33.879865,-0.234619,0.193115,0.259521,6.652832,30.700684,-12.084961
130.7053588,33.8798635,-0.001709,-0.044678,-1.372559,197.814941,22.033691,16.479492
130.7053564,33.879862,0.316650,-0.692871,2.215820,-27.587891,0.061035,22.888184
130.705354,33.8798605,0.238281,0.861084,1.226807,111.755371,-88.928223,4.577637
130.7053516,33.879858999999996,-0.179688,0.725830,1.863525,65.246582,-43.823242,9.338379
130.7053492,33.8798575,-0.179688,0.725830,1.863525,65.246582,-43.823242,9.338379
130.7053468,33.879856,0.300049,0.556885,0.487061,102.355957,-76.354980,13.305664
130.7053444,33.8798545,-0.257080,-0.174805,1.633057,-41.992188,48.767090,-13.183594
130.705342,33.879853,0.115967,-0.091553,0.986084,-32.348633,-68.908691,11.535645
130.7053394,33.87985140000001,0.082764,0.673828,1.006348,-11.962891,-7.995605,14.709473
130.7053368,33.879849799999995,0.124268,-0.210938,0.549316,12.573242,3.906250,2.319336
130.7053342,33.879848200000005,-0.045410,0.438721,1.236328,-47.851562,-18.493652,-3.845215
130.7053316,33.87984659999999,0.018799,-0.057373,0.326172,67.443848,33.935547,-7.507324
130.705329,33.879845,0.018799,-0.057373,0.326172,67.443848,33.935547,-7.507324
130.70532640000002,33.879843400000006,0.044189,0.410400,1.631836,-30.212402,31.433105,7.690430
130.7053238,33.879841799999994,0.157227,1.138428,1.279297,67.932129,-38.940430,3.784180
130.70532120000001,33.879840200000004,0.110352,-0.235840,0.445068,-42.968750,26.489258,-16.967773
130.7053186,33.87983859999999,0.135742,0.489502,1.494873,6.103516,5.249023,-23.559570
130.705316,33.879837,-0.121582,0.095947,1.066162,-2.380371,20.141602,-22.460938
130.70531300000002,33.879835400000005,0.045654,0.037842,1.111816,23.132324,-28.747559,-16.418457
130.70531,33.87983379999999,-0.103271,0.192627,1.507080,-61.584473,15.991211,-24.047852
130.705307,33.8798322,-0.103271,0.192627,1.507080,-61.584473,15.991211,-24.047852
130.705304,33.879830600000005,-0.115479,0.312500,1.564697,-28.686523,8.178711,-20.629883
130.70530100000002,33.87982900000001,0.025635,-0.115723,1.485596,-46.386719,-23.071289,-5.615234
130.705298,33.879827399999996,0.194580,0.520264,0.601318,53.222656,-0.976562,8.422852
130.705295,33.8798258,0.156250,-0.389648,0.767822,-12.084961,-35.278320,12.756348
130.70529200000001,33.87982420000001,-0.143555,0.195557,1.031494,-22.705078,3.173828,20.568848
130.705289,33.8798226,-0.042480,0.041504,1.114502,-24.047852,-6.591797,14.953613
130.705286,33.879821,0.007324,0.310547,1.282715,-24.047852,-6.591797,14.953613
130.7052823,33.879819399999995,0.007324,0.310547,1.282715,-26.489258,23.315430,-3.417969
130.7052786,33.879817800000005,0.058838,0.186523,0.846680,-22.338867,4.516602,-12.145996
130.7052749,33.8798162,-0.166748,0.233154,0.863037,-6.286621,-1.831055,-2.624512
130.7052712,33.879814599999996,-0.086670,-0.085449,0.954834,-28.259277,18.310547,-3.051758
130.7052675,33.87981299999999,0.000732,0.338867,1.163086,16.723633,3.784180,-5.310059
130.7052638,33.8798114,0.013428,0.618164,0.754883,29.113770,-12.023926,-5.432129
130.7052601,33.8798098,-0.049805,0.174805,0.992188,13.549805,-10.925293,-2.136230
130.7052564,33.87980819999999,-0.049805,0.174805,0.992188,13.549805,-10.925293,-2.136230
130.70525270000002,33.8798066,0.019287,0.250977,0.916504,5.126953,6.042480,-5.676270
130.705249,33.879805,0.166504,0.402344,1.601807,-1.708984,-7.934570,4.699707
130.70524500000002,33.879803200000005,-0.036865,0.204834,0.966064,5.187988,9.765625,2.624512
130.705241,33.8798014,-0.232422,0.214600,0.671387,-5.249023,18.127441,10.314941
130.705237,33.8797996,0.056152,0.220703,1.164307,-17.639160,-18.554688,-2.929688
130.705233,33.87979779999999,-0.102295,0.458252,0.673828,12.573242,23.742676,1.525879
130.705229,33.879796,0.074463,0.201904,1.030518,29.235840,-28.747559,-4.516602
130.705225,33.879794200000006,0.074463,0.201904,1.030518,29.235840,-28.747559,-4.516602
130.705221,33.8797924,-0.096191,0.106934,0.884033,-5.554199,-7.446289,2.014160
130.705217,33.8797906,-0.087891,0.036865,1.190430,-27.587891,-14.282227,7.019043
130.705213,33.87978879999999,-0.085693,0.459961,1.260742,10.864258,4.760742,3.662109
130.705209,33.879787,0.000977,-0.043457,1.196289,-31.372070,11.047363,0.671387
130.7052048,33.879784799999996,0.104736,0.129395,1.143066,-33.081055,0.671387,12.451172
130.70520059999998,33.87978259999999,-0.026611,0.289551,1.387451,-0.244141,-7.934570,-3.417969
130.7051964,33.87978040000001,-0.026611,0.289551,1.387451,-0.244141,-7.934570,-3.417969
130.7051922,33.879778200000004,0.089111,0.263916,0.789551,23.315430,-13.977051,-7.751465
130.705188,33.879776,0.014404,0.212158,0.754395,10.253906,-31.127930,-1.647949
130.7051838,33.879773799999995,-0.141357,0.154541,0.571289,30.700684,-29.052734,11.657715
130.70517959999998,33.87977159999999,-0.165771,-0.152832,0.973877,12.451172,-13.061523,7.019043
130.7051754,33.87976940000001,-0.055420,0.005371,0.908691,-26.550293,15.197754,-1.281738
130.7051712,33.8797672,0.076416,0.330566,1.721680,13.000488,-2.380371,6.286621
130.705167,33.879765,-0.127441,0.218262,1.096191,-10.314941,-4.211426,4.577637
130.7051627,33.8797625,-0.127441,0.218262,1.096191,-10.314941,-4.211426,4.577637
130.7051584,33.87976,0.061768,0.186279,1.039795,-27.282715,-9.765625,-3.479004
130.7051541,33.8797575,-0.029541,0.239746,0.943848,-3.601074,11.779785,-9.155273
130.7051498,33.87975499999999,0.032471,0.204834,0.625244,7.568359,-17.028809,2.014160
130.70514550000001,33.87975250000001,-0.071045,-0.135254,1.106689,-20.202637,0.976562,5.126953
130.7051412,33.87975000000001,-0.135010,0.009033,1.322021,-29.052734,22.521973,6.530762
130.7051369,33.8797475,0.040283,0.100830,0.746826,30.517578,-8.056641,15.625000
130.7051326,33.879745,0.040283,0.100830,0.746826,30.517578,-8.056641,15.625000
130.7051283,33.8797425,0.271973,-0.908691,2.560791,-95.092773,61.096191,3.295898
130.705124,33.87974,-0.058105,0.590576,1.147461,27.038574,-25.024414,-0.244141
130.70511960000002,33.8797374,0.098877,0.205811,1.103271,79.284668,23.986816,-12.573242
130.70511520000002,33.87973480000001,0.049316,0.206055,0.379639,78.613281,-42.114258,-7.934570
130.7051108,33.87973219999999,-0.136230,-0.180664,1.425293,-37.475586,-6.225586,-6.225586
130.7051064,33.8797296,-0.002441,0.100830,1.055420,-14.953613,-5.981445,-0.549316
130.705102,33.879727,-0.153320,0.184570,1.235107,22.827148,-22.521973,-2.014160
130.70509760000002,33.8797244,-0.153320,0.184570,1.235107,22.827148,-22.521973,-2.014160
130.70509320000002,33.879721800000006,-0.167236,0.190430,1.276611,-26.123047,12.084961,6.469727
130.7050888,33.87971919999999,-0.062988,-0.117188,1.362793,-74.951172,-5.004883,15.563965
130.7050844,33.879716599999995,0.181885,0.140137,0.245605,14.282227,-9.033203,4.028320
130.70508,33.879714,0.103516,0.501221,1.061035,20.996094,24.719238,-18.066406
130.7050753,33.8797113,0.090576,0.424805,1.268066,-14.282227,9.155273,-14.648438
130.7050706,33.879708599999994,-0.069092,0.109619,0.877930,-82.763672,8.483887,-11.047363
130.7050659,33.8797059,-0.069092,0.109619,0.877930,-82.763672,8.483887,-11.047363
130.7050612,33.879703199999994,-0.206787,-0.127686,0.506348,-27.648926,34.240723,-16.784668
130.7050565,33.879700500000006,-0.012695,-0.144287,0.714600,-14.038086,-9.033203,-6.835938
130.7050518,33.8796978,-0.054932,0.246826,1.263916,0.915527,-16.601562,10.437012
130.7050471,33.8796951,-0.004883,0.317383,1.389160,2.990723,-4.150391,0.549316
130.7050424,33.8796924,0.062256,0.182861,1.027344,2.136230,-34.545898,-2.136230
130.7050377,33.8796897,-0.070557,0.283691,1.210449,-26.000977,38.146973,4.272461
130.705033,33.879687,0.121582,-0.082520,0.814941,-19.348145,-25.268555,4.943848
130.7050281,33.8796843,0.121582,-0.082520,0.814941,-19.348145,-25.268555,4.943848
130.7050232,33.879681600000005,-0.016602,0.307617,1.260498,-15.563965,8.605957,-3.234863
130.70501829999998,33.879678899999995,-0.216309,0.090820,0.994141,8.239746,0.915527,-6.164551
130.70501339999998,33.8796762,-0.039795,0.250732,0.740234,-9.277344,-0.122070,-0.915527
130.7050085,33.879673499999996,-0.041748,-0.058594,1.021240,-9.765625,-16.784668,-0.549316
130.7050036,33.8796708,-0.105957,0.125977,1.043945,0.000000,-5.920410,-1.831055
130.7049987,33.8796681,0.023682,0.429199,1.031494,44.372559,-24.902344,10.314941
130.70499379999998,33.87966539999999,0.023682,0.429199,1.031494,44.372559,-24.902344,10.314941
130.7049889,33.8796627,0.104248,0.086182,1.615234,-20.080566,6.530762,7.568359
130.704984,33.87966,-0.047119,0.084717,0.437500,18.554688,-1.464844,3.356934
130.7049789,33.8796573,-0.078369,0.203125,1.074219,61.218262,7.629395,-2.624512
130.7049738,33.8796546,-0.219238,0.107178,1.076172,23.620605,-8.300781,-11.779785
130.7049687,33.8796519,-0.135254,0.100586,1.555664,-51.574707,-7.141113,-10.498047
130.7049636,33.8796492,-0.188721,0.156250,0.877930,28.686523,-8.056641,0.793457
130.7049585,33.8796465,0.238037,0.027344,0.943848,-7.995605,-47.485352,-0.549316
130.7049534,33.8796438,0.238037,0.027344,0.943848,-7.995605,-47.485352,-0.549316
130.7049483,33.8796411,-0.059814,-0.009277,0.910156,38.574219,-8.911133,3.723145
130.7049432,33.8796384,-0.082275,0.141357,1.250977,20.874023,10.498047,6.469727
130.70493810000002,33.8796357,0.065430,0.229248,1.230225,-7.019043,-18.127441,1.831055
130.704933,33.879633,-0.109619,0.055176,1.227295,-9.887695,15.747070,3.845215
130.7049277,33.8796302,-0.181641,0.161377,1.546631,-35.644531,36.743164,-5.676270
130.70492240000002,33.879627400000004,-0.092285,0.364746,1.167236,-39.184570,7.385254,-5.249023
130.70491710000002,33.8796246,-0.092285,0.364746,1.167236,-39.184570,7.385254,-5.249023
130.70491180000002,33.8796218,-0.004639,-0.209717,0.084961,18.920898,-31.250000,7.385254
130.7049065,33.87961899999999,0.228271,0.347168,1.399658,58.349609,-39.428711,-0.915527
130.7049012,33.879616199999994,-0.110596,0.344238,1.538574,9.155273,-4.394531,-2.929688
130.7048959,33.8796134,-0.097656,0.306152,1.382568,-8.544922,8.666992,2.746582
130.7048906,33.87961059999999,-0.030273,0.533691,0.625000,34.179688,14.282227,-5.065918
130.7048853,33.879607799999995,0.002686,0.071289,0.630859,-26.062012,-8.239746,-4.821777
130.70488,33.879605,-0.112305,0.496094,0.988037,10.192871,12.512207,-5.249023
130.7048746,33.8796021,-0.112305,0.496094,0.988037,10.192871,12.512207,-5.249023
130.7048692,33.879599199999994,-0.090088,-0.231201,0.651855,14.587402,-13.305664,-5.920410
130.7048638,33.879596299999996,0.203857,0.178955,2.599121,-24.963379,24.108887,-1.220703
130.7048584,33.879593400000005,0.131104,0.078613,0.723877,-4.394531,-33.813477,0.488281
130.704853,33.879590500000006,0.085938,0.183594,1.422607,-3.784180,4.577637,6.164551
130.7048476,33.879587599999994,-0.058838,0.392090,0.136719,17.822266,6.774902,-0.549316
130.7048422,33.8795847,0.110596,-0.189453,0.876465,-1.159668,-30.578613,3.295898
130.7048368,33.879581800000004,0.110596,-0.189453,0.876465,-1.159668,-30.578613,3.295898
130.7048314,33.8795789,-0.203125,0.362305,0.637207,57.312012,-6.103516,4.394531
130.704826,33.879576,0.074463,0.230225,1.252441,1.708984,-1.342773,-0.061035
130.7048207,33.8795732,-0.077637,0.146973,1.530762,-14.099121,10.925293,3.356934
130.7048154,33.879570400000006,-0.019287,0.092773,0.947266,8.117676,7.446289,0.488281
130.7048101,33.8795676,0.150391,0.546387,1.457031,-50.720215,-20.324707,-6.958008
130.7048048,33.879564800000004,-0.138916,-0.200684,0.599609,-94.848633,25.634766,-1.342773
130.70479949999998,33.87956199999999,0.045410,0.238281,1.750000,65.612793,-9.460449,9.033203
130.70479419999998,33.879559199999996,0.045410,0.238281,1.750000,65.612793,-9.460449,9.033203
130.70478889999998,33.8795564,-0.098389,0.226074,1.084717,53.161621,-12.695312,-5.187988
130.70478359999998,33.879553599999994,-0.068848,0.320801,0.466797,38.696289,-22.766113,2.929688
130.7047783,33.8795508,0.027832,-0.072998,0.961426,-3.173828,-29.235840,-12.939453
130.704773,33.879548,0.066406,0.006348,1.495850,2.868652,-29.296875,2.258301
130.7047677,33.8795451,-0.050049,0.420410,1.257568,-34.606934,8.850098,-7.446289
130.7047624,33.8795422,0.071777,-0.632568,0.605225,-23.925781,-16.601562,6.164551
130.7047571,33.8795393,0.071777,-0.632568,0.605225,-23.925781,-16.601562,6.164551
130.7047518,33.8795364,-0.058594,0.075439,0.851807,7.080078,5.798340,3.723145
130.7047465,33.8795335,-0.130859,0.280029,1.407471,27.893066,23.132324,-12.268066
130.7047412,33.8795306,0.002930,0.085938,0.774658,25.939941,-22.644043,-3.479004
130.7047359,33.879527700000004,-0.092041,0.192871,1.564453,11.169434,-7.019043,2.807617
130.7047306,33.8795248,-0.032227,0.379639,1.513916,-15.686035,1.159668,2.624512
130.7047253,33.8795219,-0.037109,0.265137,0.614014,8.178711,-6.958008,3.662109
130.70472,33.879519,0.171631,0.123047,1.086670,15.747070,7.934570,1.647949
130.70471450000002,33.87951590000001,0.171631,0.123047,1.086670,15.747070,7.934570,1.647949
130.704709,33.8795128,-0.021484,0.329834,1.133301,-15.991211,1.953125,1.403809
130.7047035,33.87950969999999,-0.109863,-0.076172,1.282715,15.258789,7.995605,5.126953
130.704698,33.8795066,0.193115,-0.253174,1.850830,-7.446289,-13.977051,-1.342773
130.70469250000002,33.87950350000001,-0.046387,0.245361,1.261719,30.944824,-0.244141,-10.986328
130.704687,33.879500400000005,-0.017334,0.630371,1.140137,-18.066406,13.305664,-9.155273
130.7046815,33.8794973,-0.248047,0.240723,0.802002,-22.888184,14.160156,3.356934
130.704676,33.8794942,0.170898,-0.449219,1.842773,-22.888184,14.160156,3.356934
130.70467050000002,33.87949110000001,0.170898,-0.449219,1.842773,-20.751953,61.889648,-4.272461
130.704665,33.879488,-0.217773,-0.224121,1.353516,45.288086,14.343262,-5.371094
130.7046595,33.879484999999995,-0.058105,0.449707,0.746338,19.348145,-3.479004,1.708984
130.704654,33.879482,-0.004883,0.765625,0.367920,15.258789,-22.460938,0.061035
130.70464850000002,33.87947900000001,0.138672,0.288330,1.177246,-13.977051,-14.160156,-0.671387
130.704643,33.879476000000004,-0.043457,0.230225,1.267334,-27.770996,4.333496,-3.234863
130.7046375,33.87947299999999,-0.112549,0.213867,0.469727,5.310059,1.159668,-8.239746
130.704632,33.87947,-0.112549,0.213867,0.469727,5.310059,1.159668,-8.239746
130.70462650000002,33.879467000000005,-0.185303,-0.236572,1.121338,-3.540039,-7.812500,5.859375
130.704621,33.879464,-0.042480,0.272705,1.537354,-17.639160,28.503418,1.159668
130.7046155,33.87946099999999,-0.046387,0.229736,1.231201,-0.183105,15.380859,15.014648
130.70461,33.879458,-0.180664,0.275146,1.068604,30.883789,24.230957,0.549316
130.70460450000002,33.87945510000001,0.096924,0.273193,0.783447,-13.610840,-5.981445,-2.441406
130.704599,33.8794522,-0.007812,0.630371,1.108643,26.489258,-2.319336,-7.202148
130.7045935,33.87944929999999,-0.007812,0.630371,1.108643,26.489258,-2.319336,-7.202148
130.704588,33.8794464,0.046631,-0.551758,1.244141,9.582520,28.747559,-3.173828
130.70458250000001,33.87944350000001,-0.060059,-0.221680,1.083984,3.295898,16.479492,-9.704590
130.704577,33.8794406,-0.026367,0.180176,1.862061,-11.047363,-5.493164,-9.826660
130.7045715,33.8794377,0.020508,-0.061523,1.103516,-50.842285,-8.911133,-3.845215
130.704566,33.8794348,-0.054199,0.016846,1.342041,-33.020020,-14.831543,10.253906
130.7045605,33.87943190000001,-0.104980,0.195068,0.665039,-9.765625,17.944336,-1.953125
130.704555,33.879429,0.116455,0.189697,1.334717,-4.760742,-9.155273,2.319336
130.7045492,33.879426200000005,0.116455,0.189697,1.334717,-4.760742,-9.155273,2.319336
130.7045434,33.87942340000001,0.016602,0.123535,1.060547,13.427734,-17.028809,-5.981445
130.7045376,33.8794206,0.035645,0.364990,1.041748,-31.250000,4.882812,-2.258301
130.7045318,33.879417800000006,0.034912,0.284424,0.769287,13.610840,-38.757324,9.521484
130.704526,33.879414999999995,-0.056152,0.098145,1.173828,6.286621,-12.939453,1.647949
130.7045202,33.8794122,0.093262,-0.233887,1.426514,-9.399414,13.427734,-2.807617
130.7045144,33.8794094,-0.196045,-0.394775,1.161377,6.469727,-0.061035,-4.333496
130.7045086,33.879406599999996,-0.196045,-0.394775,1.161377,6.469727,-0.061035,-4.333496
130.7045028,33.8794038,0.044189,0.536865,0.718018,34.606934,-6.042480,-2.807617
130.704497,33.879401,-0.031006,0.073975,0.917725,-43.457031,-21.789551,18.981934
130.70449150000002,33.87939820000001,-0.024658,0.293945,0.961182,11.047363,-9.643555,14.831543
130.704486,33.8793954,-0.082520,0.302490,1.119141,19.775391,3.784180,4.089355
130.7044805,33.879392599999996,0.057861,0.070068,1.493408,-7.507324,3.540039,4.333496
130.704475,33.8793898,-0.008301,0.438477,1.077881,-3.906250,11.230469,-1.831055
130.70446950000002,33.87938700000001,-0.066406,0.454590,0.282715,34.606934,-6.225586,-9.826660
130.704464,33.879384200000004,-0.066406,0.454590,0.282715,34.606934,-6.225586,-9.826660
130.7044585,33.87938139999999,-0.062500,-0.322510,1.357422,-21.301270,12.573242,-9.826660
130.704453,33.8793786,0.035400,0.125000,1.455078,-83.801270,-13.305664,-15.563965
130.70444750000001,33.879375800000005,-0.088135,-0.620117,0.912842,-52.246094,-1.647949,-4.272461
130.704442,33.879373,-0.328369,0.427490,1.223389,-24.291992,7.263184,-0.671387
130.70443649999999,33.879369999999994,0.061523,0.405518,1.708496,-24.230957,-28.076172,2.319336
130.704431,33.879367,-0.280518,0.042480,0.683105,-21.179199,32.348633,10.375977
130.7044255,33.87936400000001,-0.280518,0.042480,0.683105,-21.179199,32.348633,10.375977
130.70442,33.879361,0.056396,0.143311,1.045898,-28.808594,15.930176,2.746582
130.70441449999998,33.87935799999999,0.010010,-0.258301,0.434814,3.845215,7.873535,-2.807617
130.704409,33.879355,0.095215,0.354492,0.828613,-7.568359,3.723145,-2.685547
130.7044035,33.879352000000004,0.009766,-0.197510,0.533447,7.690430,2.746582,-4.333496
130.704398,33.879349,-0.092529,-0.222168,1.101074,5.737305,5.126953,-13.122559
130.70439249999998,33.87934599999999,-0.010986,-0.095459,1.540283,3.234863,-16.723633,-8.483887
130.704387,33.879343,0.044922,0.477539,-0.122070,-5.615234,-39.916992,9.582520
130.7043815,33.879340000000006,0.044922,0.477539,-0.122070,-5.615234,-39.916992,9.582520
130.704376,33.879337,0.131836,-0.104980,0.540771,1.159668,-12.207031,-3.234863
130.70437049999998,33.87933399999999,-0.176025,0.369141,1.829346,-26.489258,23.437500,9.033203
130.704365,33.879331,-0.037598,-0.115479,0.745361,10.498047,11.413574,9.643555
130.7043595,33.87932800000001,-0.068604,0.180908,0.622559,19.409180,-10.498047,-13.488770
130.704354,33.879325,0.016357,0.551270,1.550293,-15.197754,0.305176,4.821777
130.70434849999998,33.879321999999995,0.059082,0.360352,0.730225,25.085449,-17.578125,5.065918
130.704343,33.879319,0.059082,0.360352,0.730225,25.085449,-17.578125,5.065918
130.7043375,33.87931600000001,0.088379,-0.002930,0.814209,-12.207031,7.080078,4.028320
130.704332,33.879313,-0.030518,0.226562,0.919922,-20.751953,-6.042480,7.934570
130.7043263,33.8793099,-0.132568,-0.017334,0.512451,-3.662109,-2.929688,5.249023
130.7043206,33.8793068,0.081055,0.038086,1.587402,-24.108887,7.690430,-4.516602
130.70431489999999,33.8793037,-0.246582,0.167725,1.097168,-25.512695,51.696777,-7.263184
130.70430919999998,33.8793006,-0.166016,0.220947,1.221924,-36.743164,16.540527,-2.746582
130.70430349999998,33.87929749999999,-0.064453,0.451904,1.288574,-36.743164,16.540527,-2.746582
130.7042978,33.879294400000006,-0.064453,0.451904,1.288574,10.559082,2.075195,-2.868652
130.7042921,33.879291300000006,0.193604,-0.060547,0.480469,9.704590,-30.578613,10.681152
130.7042864,33.879288200000005,0.116943,0.155518,1.028564,-63.232422,-5.249023,-1.586914
130.7042807,33.879285100000004,-0.195312,0.328613,1.315186,2.929688,30.822754,5.676270
130.704275,33.879282,0.128174,0.449707,0.752441,41.137695,13.427734,-5.249023
130.7042693,33.8792788,0.088867,0.869629,0.657471,21.057129,-7.385254,-14.099121
130.7042636,33.8792756,0.007324,0.239258,1.242920,-29.724121,-25.024414,-6.286621
130.7042579,33.8792724,0.007324,0.239258,1.242920,-29.724121,-25.024414,-6.286621
130.70425219999998,33.879269199999996,-0.201660,-0.276855,1.230957,12.512207,13.244629,4.943848
130.7042465,33.87926600000001,0.071777,0.804932,1.095703,23.437500,-4.150391,1.098633
130.7042408,33.87926280000001,-0.114258,0.123535,1.599609,25.268555,-16.357422,-1.403809
130.7042351,33.879259600000005,0.053223,0.179443,1.389160,-6.164551,-5.920410,4.943848
130.7042294,33.8792564,-0.026611,0.311035,-0.032227,-18.493652,-53.833008,-3.723145
130.7042237,33.8792532,-0.014404,0.544922,-0.274902,9.155273,-53.405762,-7.568359
130.704218,33.87925,-0.291016,0.717041,1.097412,9.155273,-53.405762,-7.568359
130.7042123,33.8792468,-0.291016,0.717041,1.097412,-33.752441,-0.244141,6.164551
130.7042066,33.879243599999995,-0.005371,0.173096,0.945557,-15.991211,27.954102,15.319824
130.7042009,33.87924039999999,0.321777,0.119141,1.024170,15.319824,3.601074,-1.708984
130.7041952,33.87923719999999,-0.017090,0.143066,1.890625,1.342773,37.170410,-4.394531
130.70418949999998,33.87923399999999,0.040283,0.258789,1.115234,-6.713867,-20.141602,-8.300781
130.7041838,33.87923080000001,-0.046631,0.288818,0.920166,-8.239746,3.234863,-10.009766
130.7041781,33.87922760000001,-0.115967,0.038086,0.988525,-25.390625,-6.164551,-5.126953
130.7041724,33.879224400000005,-0.115967,0.038086,0.988525,-25.390625,-6.164551,-5.126953
130.7041667,33.8792212,0.090332,0.411865,1.195557,6.958008,-9.765625,0.549316
130.704161,33.879218,-0.045898,0.672852,1.158203,-23.193359,-1.281738,-6.591797
130.7041549,33.8792148,-0.007080,0.082275,2.017334,-42.053223,30.639648,2.685547
130.7041488,33.879211600000005,0.059326,0.126221,3.200928,-59.570312,41.198730,16.784668
130.7041427,33.8792084,0.007568,0.560303,1.109863,67.321777,-10.192871,-12.756348
130.7041366,33.879205199999994,0.144043,-1.113525,5.304199,-204.711914,7.019043,12.512207
130.70413050000002,33.87920200000001,0.144043,-1.113525,5.304199,-204.711914,7.019043,12.512207
130.7041244,33.879198800000005,0.052490,0.623779,2.395508,-248.291016,-68.298340,26.733398
130.7041183,33.879195599999996,-0.434326,-0.543213,-0.179688,-155.944824,241.577148,-66.894531
130.7041122,33.879192399999994,-1.618408,0.040039,3.030518,-253.784180,-73.669434,5.310059
130.70410610000002,33.8791892,-0.372803,0.737549,-1.166748,-81.176758,-120.300293,-43.884277
130.7041,33.879186,-0.486084,-0.951904,0.324707,-103.637695,46.875000,130.065918
130.7040938,33.879182899999996,-0.035400,-0.776367,0.569824,17.456055,-18.920898,-14.099121
130.7040876,33.879179799999996,-0.088135,0.731445,1.609863,47.729492,-6.958008,-16.906738
130.7040814,33.879176699999995,-0.088135,0.731445,1.609863,47.729492,-6.958008,-16.906738
130.7040752,33.879173599999994,0.116455,0.097168,1.453857,-0.427246,-31.372070,7.019043
130.704069,33.8791705,-0.023438,0.101562,1.135498,-9.460449,5.676270,-12.939453
130.7040628,33.8791674,-0.016602,0.045898,0.741699,2.685547,-18.188477,-0.427246
130.7040566,33.8791643,-0.067383,0.366943,0.674316,6.530762,-0.854492,1.159668
130.7040504,33.8791612,0.033203,0.231445,0.758057,21.850586,-42.846680,0.732422
130.7040442,33.8791581,-0.001465,0.116943,1.082031,1.647949,-5.676270,-6.225586
130.704038,33.879155,-0.001465,0.116943,1.082031,1.647949,-5.676270,-6.225586
130.70403199999998,33.87915209999999,-0.103516,0.179932,1.398193,-24.475098,7.507324,-3.356934
130.704026,33.8791492,-0.125488,0.235352,1.166016,-4.028320,5.981445,-2.502441
130.70402,33.8791463,-0.061768,-0.230957,1.271729,-33.752441,32.409668,3.784180
130.704014,33.8791434,-0.009277,0.178467,1.029541,5.004883,-1.953125,1.098633
130.704008,33.87914049999999,0.065186,0.195312,0.210938,47.180176,-41.076660,5.859375
130.704002,33.8791376,-0.076904,-0.031982,2.325439,10.620117,-3.906250,10.375977
130.70399600000002,33.87913470000001,0.039307,-0.322754,0.581543,-28.747559,11.047363,1.037598
130.70399,33.879131799999996,0.039307,-0.322754,0.581543,-28.747559,11.047363,1.037598
130.703984,33.87912889999999,0.082031,0.053955,1.162354,11.535645,-9.033203,-3.601074
130.703978,33.879126,-0.090576,0.273682,0.892334,5.859375,-8.178711,1.525879
130.7039722,33.879123,-0.118164,0.110596,1.257812,8.605957,-19.348145,12.207031
130.7039664,33.87912,-0.034668,-0.103027,0.375244,41.076660,-22.216797,7.080078
130.70396060000002,33.879117,-0.020508,-0.260254,1.352051,-23.559570,1.342773,3.906250
130.70395480000002,33.879114,-0.095947,0.143799,0.747803,9.338379,0.183105,0.000000
130.70394900000002,33.87911100000001,-0.095947,0.143799,0.747803,9.338379,0.183105,0.000000
130.7039432,33.879107999999995,0.028320,-0.071777,0.597900,36.010742,-4.760742,2.807617
130.7039374,33.879104999999996,-0.028076,0.238770,1.745361,-11.108398,-5.004883,0.915527
130.7039316,33.879101999999996,0.032471,0.313477,1.523682,-20.324707,21.911621,-9.155273
130.7039258,33.879099,0.135742,-0.090820,1.320068,-59.936523,16.052246,-9.521484
130.70392,33.879096,0.080566,-0.158203,0.600586,9.033203,-11.413574,1.098633
130.7039143,33.879093,-0.158691,0.143311,0.977295,46.813965,-45.166016,1.342773
130.7039086,33.87909,-0.067871,0.654297,0.462402,49.682617,7.995605,-7.995605
130.7039029,33.87908699999999,-0.067871,0.654297,0.462402,49.682617,7.995605,-7.995605
130.7038972,33.87908399999999,-0.092529,-0.680664,0.662842,39.794922,16.235352,-12.878418
130.7038915,33.87908099999999,0.253174,-0.862305,1.312500,93.872070,-60.729980,8.544922
130.70388580000002,33.87907800000001,0.143311,0.388184,0.931396,12.268066,-49.011230,17.700195
130.70388010000002,33.87907500000001,0.078125,0.192383,0.296387,2.014160,-25.573730,4.394531
130.70387440000002,33.879072,0.145996,-0.188477,1.200439,0.854492,-25.451660,9.338379
130.70386870000002,33.879069,0.003906,0.048096,1.371338,-25.939941,12.207031,-4.028320
130.703863,33.879066,0.003906,0.048096,1.371338,-25.939941,12.207031,-4.028320
130.7038578,33.879063099999996,0.122559,0.257812,1.381836,-35.827637,-20.385742,6.835938
130.7038526,33.8790602,-0.176270,0.455078,0.963867,-13.671875,47.180176,-10.009766
130.7038474,33.87905729999999,-0.187988,0.310059,0.447266,43.762207,-1.708984,-3.662109
130.7038422,33.879054399999994,0.014893,-0.011475,0.414551,37.475586,-24.353027,-13.549805
130.70383700000002,33.87905150000001,0.051270,0.010742,1.322510,-15.197754,-26.977539,0.000000
130.70383180000002,33.879048600000004,-0.079346,-0.188965,1.206543,39.306641,-13.061523,9.277344
130.7038266,33.879045700000006,-0.192139,0.027100,1.401367,-6.347656,16.662598,-9.399414
130.7038214,33.8790428,-0.192139,0.027100,1.401367,-6.347656,16.662598,-9.399414
130.7038162,33.8790399,0.001221,-0.016846,0.416016,-0.183105,-3.845215,-1.831055
130.703811,33.879037,-0.038330,0.090088,0.594238,46.447754,-1.342773,-1.037598
130.7038056,33.8790342,-0.139404,0.142334,1.314453,47.790527,3.173828,-1.525879
130.7038002,33.879031399999995,-0.020996,0.301270,1.421875,-24.963379,11.352539,-12.512207
130.7037948,33.8790286,-0.008057,-0.076660,0.823730,-10.009766,2.990723,-0.305176
130.7037894,33.8790258,0.118652,-0.039307,0.960938,-47.058105,-11.169434,1.037598
130.70378399999998,33.87902299999999,0.118652,-0.039307,0.960938,-47.058105,-11.169434,1.037598
130.7037786,33.8790202,0.008057,0.028809,1.046143,-38.330078,-9.155273,5.493164
130.7037732,33.8790174,-0.111572,-0.226318,2.002686,-2.807617,3.784180,3.356934
130.7037678,33.879014600000005,-0.154785,0.292236,0.940674,-20.935059,24.291992,-18.249512
130.7037624,33.8790118,-0.001709,-0.147705,1.073975,-36.743164,-7.568359,-2.563477
130.703757,33.879009,-0.119141,-0.016846,0.720703,13.488770,-37.353516,2.685547
130.7037521,33.87900640000001,0.010498,0.146729,0.630859,3.051758,-4.699707,-0.061035
130.7037472,33.87900380000001,0.192383,-0.053955,1.695557,25.207520,-8.789062,4.516602
130.7037423,33.8790012,0.192383,-0.053955,1.695557,25.207520,-8.789062,4.516602
130.7037374,33.878998599999996,-0.342773,0.058838,1.721924,15.258789,27.770996,-2.929688
130.7037325,33.878996,0.171143,0.422607,0.962891,16.479492,4.943848,-9.338379
130.7037276,33.878993400000006,-0.057373,0.049805,1.103516,5.676270,-24.108887,-5.065918
130.70372270000001,33.878990800000004,0.198486,0.215576,1.311279,1.892090,-25.756836,3.479004
130.7037178,33.878988199999995,0.087891,-0.358887,1.083496,8.300781,-31.921387,3.295898
130.7037129,33.87898559999999,-0.097656,0.285400,1.523438,-29.296875,9.094238,-3.967285
130.703708,33.878983,-0.097656,0.285400,1.523438,-29.296875,9.094238,-3.967285
130.7037038,33.878980199999994,-0.083008,0.321289,1.544922,-12.695312,-12.512207,12.817383
130.7036996,33.87897739999999,-0.098389,0.029053,0.552734,19.653320,35.522461,21.057129
130.70369540000002,33.87897460000001,0.180908,-0.088135,1.235596,-4.821777,-3.662109,4.394531
130.7036912,33.8789718,-0.313965,-1.158203,3.142334,-111.145020,7.629395,3.723145
130.703687,33.878969,-0.095703,-1.418701,-1.298340,-70.251465,-78.430176,77.575684
130.7036828,33.878966199999994,0.241699,-0.295654,2.425781,57.678223,-72.692871,-34.606934
130.7036786,33.87896339999999,0.046631,0.377930,0.501465,7.263184,-35.156250,11.962891
130.7036744,33.878960600000006,0.046631,0.377930,0.501465,7.263184,-35.156250,11.962891
130.7036702,33.8789578,-0.203125,0.071289,1.899658,5.249023,-1.525879,-5.371094
130.703666,33.878955,-0.137207,0.306641,1.106689,-25.451660,39.184570,9.643555
130.7036614,33.87895219999999,0.093994,-0.291992,0.288086,-24.475098,-11.779785,-4.089355
130.7036568,33.8789494,-0.089844,-0.097412,0.494873,53.100586,-23.620605,3.295898
130.7036522,33.87894659999999,0.010010,0.172852,1.493164,-10.742188,16.113281,-5.676270
130.7036476,33.8789438,-0.123535,0.037598,1.329590,-28.137207,8.361816,-0.915527
130.703643,33.878941,-0.123535,0.037598,1.329590,-28.137207,8.361816,-0.915527
130.7036384,33.87893819999999,-0.081299,-0.101318,1.144531,-4.089355,15.197754,1.281738
130.7036338,33.8789354,-0.133789,-0.009521,1.462646,-8.605957,31.188965,0.305176
130.7036292,33.87893259999999,-0.295654,0.094482,0.922363,-3.967285,6.774902,-7.202148
130.7036246,33.8789298,-0.042725,-0.051025,1.202637,2.563477,-0.854492,-9.521484
130.70362,33.878927,-0.167236,-0.030518,0.935791,-17.822266,-2.502441,-6.347656
130.7036155,33.878924600000005,0.037109,-0.058838,1.496094,2.746582,18.127441,-7.019043
130.703611,33.8789222,0.081787,0.057861,1.008789,16.784668,-14.343262,-5.554199
130.7036065,33.8789198,0.081787,0.057861,1.008789,16.784668,-14.343262,-5.554199
130.703602,33.87891739999999,-0.103271,-0.065918,1.299316,-0.793457,0.732422,-9.216309
130.7035975,33.878915,-0.044678,-0.122803,0.937500,-3.295898,10.437012,-4.699707
130.703593,33.87891260000001,-0.058350,-0.037354,1.159180,10.009766,-12.390137,4.577637
130.7035885,33.8789102,0.049316,0.046143,1.369873,-3.479004,-31.799316,6.591797
130.703584,33.8789078,-0.049072,-0.190186,1.357666,-14.892578,-25.512695,11.657715
130.7035795,33.878905399999994,-0.202393,0.114990,1.117920,6.958008,8.911133,6.042480
130.703575,33.878903,0.286865,-0.211670,1.182861,6.958008,8.911133,6.042480
130.7035715,33.87890120000001,0.286865,-0.211670,1.182861,-13.122559,-24.658203,6.347656
130.703568,33.878899399999995,0.066406,-0.261719,1.368652,5.676270,-13.854980,2.380371
130.7035645,33.878897599999995,-0.138184,-0.115967,1.213623,-5.004883,-7.812500,3.479004
130.703561,33.8788958,-0.045410,-0.108887,1.384277,-5.554199,8.850098,13.366699
130.7035575,33.87889399999999,-0.044922,0.356934,0.825928,28.930664,-11.108398,7.507324
130.703554,33.878892199999996,0.066650,-0.261475,1.099609,4.028320,5.981445,1.953125
130.7035505,33.8788904,-0.105957,-0.201904,1.275391,8.361816,-2.014160,0.732422
130.70354700000001,33.8788886,-0.105957,-0.201904,1.275391,8.361816,-2.014160,0.732422
130.7035435,33.87888679999999,-0.054199,0.023926,1.402344,0.061035,16.601562,-1.281738
130.70354,33.878885,0.110840,-0.148438,0.932129,-0.427246,-6.164551,-14.404297
130.7035388,33.87888419999999,-0.094727,-0.027100,1.006348,0.671387,-0.366211,-3.051758
130.7035376,33.8788834,-0.159424,-0.014160,1.098877,29.541016,-3.601074,1.281738
130.70353640000002,33.87888260000001,0.146240,-0.147217,0.991943,-10.253906,-12.451172,-1.098633
130.7035352,33.8788818,-0.025635,-0.197754,0.983643,-9.643555,-9.277344,1.770020
130.703534,33.87888099999999,-0.025635,-0.197754,0.983643,-9.643555,-9.277344,1.770020
130.7035328,33.8788802,-0.145508,-0.084473,1.288330,-8.422852,4.821777,12.207031
130.70353160000002,33.87887940000001,0.024902,-0.157959,1.156738,-15.319824,-23.925781,6.896973
130.7035304,33.8788786,0.054199,-0.159668,0.937988,6.958008,20.263672,-5.737305
130.7035292,33.87887779999999,0.023193,-0.193848,1.158203,-1.098633,2.563477,0.488281
130.703528,33.878877,0.046631,0.123047,1.000732,24.047852,-6.103516,6.347656
130.7035277,33.87887679999999,0.082031,0.155762,1.161621,-20.080566,-2.197266,-6.835938
130.7035274,33.878876600000005,0.150391,0.210938,0.987793,-3.234863,3.295898,-0.183105
130.7035271,33.878876399999996,0.150391,0.210938,0.987793,-3.234863,3.295898,-0.183105
130.70352680000002,33.87887620000001,0.004395,0.100830,1.058105,-4.028320,4.333496,-7.263184
130.7035265,33.878876000000005,-0.082764,0.083984,1.086670,-3.784180,4.272461,-11.596680
130.7035262,33.878875799999996,0.008545,0.058594,1.089111,5.126953,-3.662109,5.859375
130.70352590000002,33.87887560000001,0.102295,0.126709,1.093018,-6.469727,1.037598,9.704590
130.7035256,33.8788754,0.082520,0.047363,1.002930,-0.488281,-11.596680,-0.671387
130.70352530000002,33.87887520000001,0.310791,-0.598877,0.690430,7.934570,-0.122070,6.652832
130.703525,33.878875,0.105225,0.106201,1.149414,10.314941,4.089355,-5.737305
130.70352480000003,33.87887480000001,0.105225,0.106201,1.149414,10.314941,4.089355,-5.737305
130.7035246,33.8788746,0.115234,0.089600,1.118164,-2.441406,1.464844,-2.685547
130.7035244,33.87887439999999,0.014648,0.167236,1.060303,-4.577637,-0.122070,3.723145
130.7035242,33.8788742,0.029297,0.140137,1.073975,-2.746582,-0.061035,6.042480
130.70352400000002,33.87887400000001,0.093262,0.122314,1.148193,-1.770020,-1.220703,-5.187988
130.7035238,33.8788738,0.029541,0.108154,1.092285,-10.559082,5.187988,-0.366211
130.70352359999998,33.878873599999984,0.053223,0.134766,1.085693,-6.958008,0.122070,3.906250
130.7035234,33.878873399999996,0.068359,0.106445,1.096924,-3.784180,4.943848,4.577637
130.7035232,33.878873200000015,0.068359,0.106445,1.096924,-3.784180,4.943848,4.577637
130.703523,33.878873,0.141357,0.120850,1.130371,-0.732422,-0.976562,0.366211
130.7035228,33.878872900000005,0.031250,0.131348,1.069336,0.732422,0.122070,-0.671387
130.70352259999999,33.878872799999996,0.063721,0.125244,1.082764,-2.929688,-0.305176,1.220703
130.7035224,33.8788727,0.039062,0.128418,1.080811,-4.882812,0.732422,-1.770020
130.70352219999998,33.878872599999994,0.074951,0.116943,1.088379,-3.417969,0.671387,-1.403809
130.703522,33.8788725,0.002930,0.124512,1.089600,-2.990723,2.441406,-1.037598
130.7035218,33.878872400000006,0.002930,0.124512,1.089600,-2.990723,2.441406,-1.037598
130.7035216,33.8788723,0.052734,0.110352,1.108887,-5.554199,-0.854492,6.103516
130.7035214,33.8788722,0.083252,0.090820,1.117920,-2.258301,-3.234863,-5.126953
130.70352119999998,33.878872099999995,0.022461,0.126953,1.070312,-2.502441,-1.037598,1.464844
130.703521,33.878872,0.050781,0.143066,1.079346,1.342773,-1.037598,0.793457
130.7035209,33.87887180000001,0.054199,0.123291,1.074463,0.122070,-0.976562,-1.892090
